time,seconds_elapsed,z,y,x
1785389244947025700,0.088025634765625,0.10491934111118316,1.0199791531957685,0.12707038264274598
1785389244967113700,0.10811376953125,0.0393617040514946,1.0116685670986771,-0.046980398894287644
1785389244987200800,0.12820068359375,0.020769816306233403,0.9516400687240063,0.16106369152888655
1785389245007288600,0.14828857421875,0.006218728384375572,0.8840572094470261,-0.04627816890906542
1785389245027375600,0.168375732421875,-0.05026946703493595,0.8306659571297467,0.07281078652571886
1785389245047463700,0.188463623046875,-0.0013753800064325332,0.7507770123787224,0.049359695246256885
1785389245067550700,0.20855078125,0.015164835906028747,0.7027784128852188,-0.03554156124144792
1785389245087637800,0.2286376953125,-0.005243745872378349,0.6281921045869588,0.19114000963438302
1785389245107725600,0.2487255859375,-0.04048340155780315,0.6292690861687064,-0.044876412352360784
1785389245127812600,0.2688125,0.022642039918899536,0.5783297570481896,0.15115608203131706
1785389245147900700,0.288900634765625,-0.05907119764983654,0.5819618299402296,0.15421813648305832
1785389245167987500,0.308987548828125,-0.11205927599370478,0.5001265734270215,0.04780241933427751
1785389245188075300,0.3290751953125,-0.059627077966928475,0.49082244624793525,0.075190740464814
1785389245208162300,0.349162353515625,-0.03361643839776516,0.5379938011370599,0.10569514778926968
1785389245228249300,0.369249267578125,-0.12097031220197677,0.5739207084342837,-0.03213186239581555
1785389245248337200,0.389337158203125,0.02395546060502529,0.5302297430068255,0.1458786165524274
1785389245268424200,0.409424072265625,-0.056225745090842244,0.5526449884325265,0.047886371290683745
1785389245288512300,0.42951220703125,-0.07662965069413184,0.4451188258238136,0.046076106998324394
1785389245308599300,0.449599365234375,-0.03844634277224541,0.41142552279755473,0.027695085524767637
1785389245328687400,0.469687255859375,-0.24222704012989996,0.3867131063453853,-0.03269154210519045
1785389245348774100,0.489774169921875,-1.0326444273710251,0.7583937709927558,-0.0741646122874692
1785389245368862500,0.509862548828125,0.280623698541522,0.2159682710185647,0.9853040725905448
1785389245388949500,0.529949462890625,0.3448345971673727,0.07073825456798076,-0.6262516380436718
1785389245409036300,0.550036376953125,-0.6691916389733552,0.5036733061231673,-1.0194678426727652
1785389245429124400,0.570124267578125,2.8603683885753153,-0.3865614229150116,0.8367008533798158
1785389245449211400,0.59021142578125,-1.071759463185072,0.4340469583198428,0.05721618090029806
1785389245469299200,0.61029931640625,-0.3916775968849659,0.21131927616894244,-0.11840393231268971
1785389245489386200,0.63038623046875,0.6771458128482103,0.08481061906218529,0.44786052574738855
1785389245509474300,0.650474365234375,-0.2672048295199871,0.18985154072642324,-0.026779906908608972
1785389245529561300,0.670561279296875,-0.28610651386678215,0.1220547464378178,0.1462693694356829
1785389245549649200,0.690649169921875,0.3883645268142223,-0.003159194683283567,0.03604552870821207
1785389245569736200,0.710736083984375,-0.04744271917641162,0.04238280543833971,0.24888551163841038
1785389245589824300,0.73082421875,0.1903717652082443,-0.000575607930868864,0.0665576078824699
1785389245609911300,0.750911376953125,0.10500760391652583,0.0018988193586468695,0.13144666149821133
1785389245629998000,0.770998046875,-0.05402092852294445,0.016124620848894117,0.04507719562146813
1785389245650086400,0.79108642578125,-0.10144085134565829,-0.00007423427999019622,0.11649660085402429
1785389245670173400,0.81117333984375,-0.01758241844177246,-0.025432109028846024,0.08622019359916448
1785389245690261200,0.83126123046875,0.03948445364832878,-0.029019758257269858,0.08926772633520885
1785389245710348300,0.851348388671875,-0.05339607462286949,-0.06790946088284254,0.10566491704778745
1785389245730436400,0.871436279296875,-0.04417465729117393,-0.024386545498669147,0.17988346974588929
1785389245750523400,0.8915234375,-0.014753332495689392,-0.0668858169235289,0.21522580035449937
1785389245770611200,0.911611083984375,-0.03043137862086296,0.02869958639219403,0.20174499027896672
1785389245790698200,0.9316982421875,-0.007126490879058837,0.012167846047133207,0.18253498890167102
1785389245810786300,0.951786376953125,-0.11901976265609264,-0.006943681658059358,0.22018735001832246
1785389245830873300,0.971873291015625,-0.05395487754940986,-0.03534866901785135,0.2745265141775831
1785389245850960100,0.991960205078125,-0.3878548237264156,-0.02790405210033059,0.17140395682267845
1785389245871048200,1.012048095703125,0.35631109994947907,-0.07173866378217936,0.3032700127767399
1785389245891135200,1.03213525390625,0.4767062426120042,-0.017300532760471103,0.2933532883909531
1785389245911223300,1.052223388671875,-0.32372166651189327,0.04074965127855539,0.276540740076825
1785389245931310300,1.072310302734375,-0.01797054097652435,0.06891454627215862,0.07909307253244333
1785389245951398400,1.0923984375,0.08166998294889927,0.11100742885321378,0.12512710308786482
1785389245971485400,1.1124853515625,0.1193394961297512,0.13185732465833425,0.1011895525988657
1785389245991573200,1.1325732421875,0.02129939313828945,0.206740570076555,0.07489010441727005
1785389246011660300,1.152660400390625,-0.0613385580599308,0.2940989739254117,0.008631853940710425
1785389246031748400,1.172748291015625,-0.10016367101669311,0.23906901449039578,0.00034121465310454365
1785389246051835400,1.19283544921875,-0.11254384464025496,0.21301175930052996,-0.006003313801717013
1785389246071922200,1.212922119140625,0.003806406545639038,0.262757933113724,0.004478990311268717
1785389246092010200,1.23301025390625,0.10239245298206806,0.3399221290759742,0.03225947083085775
1785389246112097300,1.25309716796875,-0.1648006861001253,0.3249358646072447,0.06613477022736333
1785389246132185300,1.273185302734375,-0.17445055797696113,0.263719325491786,-0.027373041363013908
1785389246152272100,1.293272216796875,-0.06688683983683585,0.3105732849948108,0.008171698216209188
1785389246172360400,1.3133603515625,-0.01866027680635452,0.37066593464687464,0.08926615543263032
1785389246192447500,1.333447509765625,-0.11262450866103171,0.4334652129091322,-0.0345395811246708
1785389246212535300,1.353535400390625,-0.05435293695628643,0.42671179312616586,0.1373498759263195
1785389246232622300,1.373622314453125,-0.18352526031434535,0.4461211347341537,0.024016753205051644
1785389246252710400,1.39371044921875,-0.05133563496172428,0.49067193186134095,0.11472438528342171
1785389246272797400,1.41379736328125,-0.05254442622959613,0.540782701203227,-0.003930526115652174
1785389246292885500,1.433885498046875,-0.0482540355592966,0.5167853011526167,-0.031080106586869806
1785389246312972500,1.45397265625,0.10903671330213546,0.49710810238868,0.014334855921869165
1785389246333060600,1.474060546875,-0.31876375184357164,0.5786182186007499,-0.09358960812231525
1785389246353147400,1.4941474609375,-0.003511222991347313,0.5831047163650394,-0.05055559963309206
1785389246373234400,1.514234375,0.02187456267774105,0.5836956679955124,0.0647596002834849
1785389246393322500,1.534322509765625,-0.012189619487524032,0.6011211423099041,-0.02918464366251137
1785389246413409500,1.554409423828125,-0.017725626304745674,0.6177998899102211,0.01775656029912643
1785389246433497300,1.574497314453125,-0.11553951932489871,0.6426125518664717,0.052313435051892884
1785389246453584400,1.59458447265625,-0.12624796034395694,0.6071370415985584,0.0166567229981767
1785389246473672400,1.61467236328125,-0.04533201063275337,0.5668509161785245,0.053340417179185896
1785389246493759500,1.634759521484375,-0.043996962636709214,0.5369941225752234,0.004934086268162354
1785389246513847300,1.654847412109375,-0.06825695914626122,0.41509208248108626,0.06044320752224885
1785389246533934300,1.674934326171875,-0.01602466760575771,0.33633915602266784,0.10251271836087107
1785389246554022700,1.695022705078125,-0.07062777993083,0.3399424412116408,0.04229783056862652
1785389246574109400,1.715109375,-0.05242693732976913,0.35814167637750505,0.06929738527701701
1785389246594197500,1.735197509765625,-0.09522563009262085,0.3402307566337287,0.06683132395704743
1785389246614284500,1.755284423828125,-0.046241526693105696,0.36620091806203126,0.04799382742026355
1785389246634371600,1.77537158203125,-0.008266308563947677,0.3423478949181735,0.0327182611487573
1785389246654459400,1.79545947265625,0.05990764847397804,0.31118922493606804,0.03026432409142144
1785389246674546400,1.81554638671875,0.08615092775523663,0.3232736304834485,0.03525753383541014
1785389246694634500,1.835634521484375,0.03340367242991924,0.34395679141953583,0.03839965865288395
1785389246714721500,1.855721435546875,-0.010694412493705749,0.34097353782504797,0.012787722377991303
1785389246734809300,1.875809326171875,-0.0033580782562494275,0.3063600512139499,-0.012476832081202883
1785389246754896400,1.895896484375,0.03301438085138798,0.29977950377985835,0.047592402445944024
1785389246774984400,1.915984375,0.011752397114038467,0.2652567641921341,-0.039100614563049745
1785389246795071500,1.936071533203125,0.0035030396848917005,0.2700670870833099,-0.01979496165839955
1785389246815159300,1.9561591796875,-0.0034603695869445798,0.27626579559296366,-0.04002467517198529
1785389246835246300,1.976246337890625,-0.0527291351467371,0.2553222301550209,0.013094594086788128
1785389246855334400,1.99633447265625,-0.12484510780870914,0.26910774053186176,-0.050573719811672344
1785389246875421400,2.01642138671875,-0.08090659736096859,0.26370807344540953,-0.01579277452904498
1785389246895509500,2.036509521484375,-0.05066109670102596,0.2678264685496688,-0.04691931635681539
1785389246915596500,2.056596435546875,-0.01314823538661003,0.2541096394948661,-0.031808669739880134
1785389246935683600,2.07668359375,-0.05971884790360927,0.24776684633940457,-0.02718815206607105
1785389246955771400,2.096771484375,-0.014365794482827186,0.22326617294177412,-0.0577532606187975
1785389246975858400,2.1168583984375,-0.02289279980957508,0.23298911005482076,0.06217010438009165
1785389246995946500,2.136946533203125,-0.03837444657981395,0.22319822227209804,0.0634219402052462
1785389247016033500,2.157033447265625,-0.011761164942383766,0.2592784204348922,0.06150777714699506
1785389247036121300,2.177121337890625,-0.023318331745266912,0.2970931873053312,0.11188727129450998
1785389247056208400,2.19720849609375,-0.06824585323035717,0.2928602259106934,0.0816720379086677
1785389247076296400,2.21729638671875,-0.06760112558603286,0.28126652648970485,0.07527553267143666
1785389247096383200,2.23738330078125,-0.031823125240206716,0.29765491284132,0.07926775324591435
1785389247116471600,2.257471435546875,-0.016244447836279867,0.2525685475327074,0.07489343801867217
1785389247136558600,2.27755859375,-0.014967852029204368,0.2770516852736473,0.021244927571271544
1785389247156645600,2.297645751953125,-0.06217617792785168,0.27742811737060546,0.04230184002346359
1785389247176733400,2.3177333984375,-0.018837971460819242,0.2575333303332329,0.011011869528598617
1785389247196820500,2.337820556640625,-0.02725684023797512,0.26601167421266436,-0.0025580333276942835
1785389247216908500,2.357908447265625,-0.04877133743166923,0.256297504927963,-0.014225819756556301
1785389247236995600,2.37799560546875,0.02319207501709461,0.22287410488426684,-0.023436537597724235
1785389247257083400,2.39808349609375,-0.05405950696766376,0.18841814692243933,-0.01982919272156432
1785389247277170400,2.41817041015625,-0.0753945559412241,0.14202961297407746,-0.009324165320117025
1785389247297258500,2.438258544921875,-0.07496551687419414,0.09866101136878132,0.03073148494544439
1785389247317345500,2.458345458984375,-0.051692777836322784,0.07029591762796043,0.014218742703442694
1785389247337433600,2.47843359375,-0.04220481852293014,0.03751461488008499,0.07712207385357468
1785389247357520600,2.498520751953125,-0.09592530279457569,0.04049085421189665,0.07279593144988175
1785389247377607700,2.518607666015625,-0.03217500741779804,0.0053382922880351544,0.033434512809466105
1785389247397695500,2.538695556640625,-0.0743704735904932,-0.02996887567564845,0.08759170114807784
1785389247417782500,2.558782470703125,-0.06030979953408241,-0.026254969719052314,0.04772947739565279
1785389247437870600,2.57887060546875,-0.07904255705475807,-0.06978373032212257,0.0902719349416904
1785389247457957600,2.59895751953125,-0.02200608010292053,-0.1155913956426084,0.09891862112535163
1785389247478045400,2.61904541015625,-0.013595394632220268,-0.11543152890577911,0.09313501448892056
1785389247498132500,2.639132568359375,-0.07243453709185123,-0.08640095699355006,0.08403205417143181
1785389247518220500,2.659220458984375,-0.028065234011411665,-0.15334493384510278,0.10509411315619945
1785389247538307300,2.679307373046875,0.031978608062863345,-0.14758812388405204,0.04880983367799781
1785389247558395600,2.699395751953125,-0.08972352554500103,-0.13579101084545253,0.0856626693142578
1785389247578482700,2.719482666015625,-0.03888590323328971,-0.1453350842602551,0.07720666513079777
1785389247598569700,2.73956982421875,0.01928688427209854,-0.16384382376670836,0.08453494392596185
1785389247618657500,2.759657470703125,-0.07915127812623977,-0.17220599392056465,0.11118662134502083
1785389247638744600,2.77974462890625,-0.14202829779982565,-0.17126272172108292,0.003621138222783338
1785389247658832600,2.79983251953125,-0.09998480731844901,-0.1821719460092485,0.12173521389355882
1785389247678919700,2.819919677734375,-0.054665071645379065,-0.15091156921833754,-0.00952847398687154
1785389247699007500,2.840007568359375,-0.04451835616230965,-0.11548501265868544,0.07860064937300049
1785389247719094500,2.860094482421875,-0.04163490968048572,-0.05204071449115872,0.06226647286007646
1785389247739182600,2.8801826171875,-0.05618658212423324,-0.006808803232014179,0.01466097803711891
1785389247759269400,2.900269287109375,-0.07781506108641624,0.015455635546147822,0.03333344303818885
1785389247779356400,2.9203564453125,0.004513093510270119,0.014149082992225885,0.008210436491132714
1785389247799444500,2.940444580078125,-0.011928922724723815,0.051166562005132435,0.0751582127349684
1785389247819531500,2.960531494140625,-0.08434066346287727,0.03794993755742907,0.05233451893911697
1785389247839619600,2.98061962890625,0.025090602114796638,0.014701602308452128,0.10335298684360458
1785389247859706400,3.000706298828125,-0.0791542007356882,0.04444879805743694,0.07653019520791712
1785389247879794700,3.020794677734375,-0.07142565231025219,0.054168228039145463,0.07766030891612172
1785389247899881700,3.0408818359375,-0.020116320833563805,0.03417465680241585,0.07308228781032376
1785389247919969500,3.060969482421875,-0.06339782867729664,0.02817775447517633,0.040670558160357174
1785389247940056600,3.081056640625,-0.07817746465802192,0.0337888723552227,0.12220351639189757
1785389247960143600,3.1011435546875,-0.017483634242415426,0.07615297309309244,0.0397482374173589
1785389247980231400,3.1212314453125,-0.037732057023048396,0.03456540968567133,0.12751491153985262
1785389248000318500,3.141318359375,-0.38560967514812944,-0.08044497119858861,-0.2744701808804646
1785389248020406500,3.161406494140625,0.4065028255730867,-0.1886374887615442,0.21165274590700864
1785389248040493600,3.18149365234375,0.8277402789413929,-0.24546748335584997,0.01125309668923728
1785389248060581400,3.201581298828125,-0.01686345651745796,-0.19858269032314418,0.17479043918950482
1785389248080668400,3.22166845703125,-0.13173837445378303,-0.3032783056810498,0.15313448769850654
1785389248100756500,3.241756591796875,-0.022655483922362326,-0.3217141260817647,0.22771365386992692
1785389248120843500,3.261843505859375,-0.10753741465508937,-0.44377340256422754,0.06864565706974826
1785389248140930300,3.281930419921875,-0.21767828980684278,-0.5035305366516113,0.09129724113512784
1785389248161018600,3.3020185546875,-0.16205460226237772,-0.5168558821707964,0.059983289259765295
1785389248181105200,3.322105224609375,0.05191781876385212,-0.5312161236956715,0.11231441066539846
1785389248201193200,3.342193115234375,-0.026554244926571845,-0.5051989082552493,0.09772693625590763
1785389248221280000,3.362280029296875,-0.08140753262042999,-0.4981307234346866,0.12611483548358082
1785389248241368000,3.3823681640625,-0.05623685100674629,-0.46864480897039174,0.0933935010283254
1785389248261455000,3.402455078125,-0.10494856720566749,-0.4444954332284629,0.05548391374759376
1785389248281543200,3.422543212890625,0.06829846020042896,-0.4296300186604261,0.2548554894261062
1785389248301630200,3.442630126953125,-0.0520014053940773,-0.4403437203764915,0.05714191922084428
1785389248321717200,3.46271728515625,-0.16975567815899847,-0.3774731304436922,0.1580727295519784
1785389248341805300,3.482805419921875,-0.15245441474616528,-0.36034590842351316,0.09786911207241937
1785389248361892000,3.50289208984375,-0.04963350721895694,-0.31630233016610143,0.1368886242232751
1785389248381980200,3.522980224609375,-0.01918459294140339,-0.27589564710631964,0.1654801014653407
1785389248402067200,3.543067138671875,0.05229074372947216,-0.19507877385541794,0.07894329793136566
1785389248422155300,3.5631552734375,-0.16627309674024582,-0.14337518236413596,0.12623657130026258
1785389248442242000,3.583241943359375,-0.13444704889059067,-0.1403152102716267,0.09440609387066215
1785389248462329000,3.6033291015625,-0.011241524982452391,-0.19195596565976739,0.10327714512841775
1785389248482417200,3.623417236328125,0.07203647768497466,-0.21936507385000587,0.07916443900191225
1785389248502504200,3.643504150390625,-0.034736382338404655,-0.17498422646224499,0.16219810238629578
1785389248522592000,3.663592041015625,-0.14245149164795876,-0.15915040525346993,0.05349984552459791
1785389248542679000,3.683678955078125,-0.19280103818178176,-0.11368351619467139,0.1908006764111109
1785389248562767000,3.70376708984375,-0.008830956709384918,-0.0792000857040286,0.023047351050470025
1785389248582854100,3.723854248046875,0.0075362407237291335,-0.07486132584735751,0.06321825259299949
1785389248602942200,3.743942138671875,0.10840601418316363,-0.10018515219613909,0.1527837745646946
1785389248623029200,3.764029296875,0.018359832555055616,-0.08024827958270907,0.11085369046307168
1785389248643116300,3.7841162109375,-0.29302959112823007,-0.046922348564118144,0.0402972404690925
1785389248663204000,3.8042041015625,0.020742928299307822,-0.12781316383406519,-0.04632366115176119
1785389248683291100,3.824291015625,-0.008126023310422897,-0.10992942435815929,0.04247651160378009
1785389248703379200,3.844379150390625,-0.00660568187534809,-0.17770809846818447,0.053882396835088726
1785389248723466200,3.86446630859375,-0.12862228825986385,-0.11843670207113027,0.12124316519345156
1785389248743554000,3.884553955078125,-0.10070552280843258,0.1877759034961462,0.4060875958357006
1785389248763641000,3.90464111328125,-0.09697335054278373,0.648198681435734,-0.043700902299582955
1785389248783728000,3.92472802734375,0.0844569833189249,-1.2668088648155331,-0.6606847996518016
1785389248803816200,3.944816162109375,-0.09648878189623356,-0.6695974432952702,-0.027423702971171585
1785389248823903000,3.964903076171875,-0.1413292096197605,-0.3531605269640684,-0.137510162788257
1785389248843991000,3.984990966796875,0.1176058042049408,-0.30475568475723264,-0.03763391214450821
1785389248864078000,4.005078125,-0.3181909203916788,-0.24120982591137288,-0.025929482358042148
1785389248884166100,4.025166259765625,-0.06831073516011238,-0.1623008321084082,0.046353115575108676
1785389248904253200,4.045253173828125,0.022322306445240973,-0.1884532182358205,0.0503376551666297
1785389248924341200,4.06534130859375,-0.1423918704152107,-0.18744579475894568,0.09120720649780704
1785389248944428300,4.08542822265625,-0.05928747074902057,-0.15048574502170084,0.19593714425042272
1785389248964515300,4.105515380859375,-0.1997878283292055,-0.18216916953027248,0.1543823323351331
1785389248984603100,4.12560302734375,-0.06974690544307231,-0.2049677151851356,0.10865699326954781
1785389249004690200,4.145690185546875,0.04641512969434261,-0.23765783251821992,0.09683565910514444
1785389249024778200,4.1657783203125,-0.14197159917652605,-0.22858722183406352,0.16061536323949693
1785389249044865000,4.185864990234375,-0.024240122765302657,-0.24139453482851383,0.09667898897239938
1785389249064953000,4.205953125,-0.01296177290380001,-0.20923253302276132,0.18022185312109068
1785389249085040000,4.2260400390625,-0.0214367557823658,-0.28905601132214065,-0.6616611704032868
1785389249105127200,4.246127197265625,-0.5334107111304998,-0.032588118263334034,1.6427750978276132
1785389249125215000,4.266215087890625,0.2401958265632391,-0.21477496958076953,0.0526130344863981
1785389249145302000,4.286302001953125,-0.08605331259965895,-0.23332068009674548,0.07660199550222604
1785389249165390600,4.306390625,-0.06242050807774067,-0.24668241210356354,0.14435122432205824
1785389249185477400,4.326477294921875,-0.09532909046709537,-0.24223785378485915,0.02335490089599043
1785389249205565400,4.3465654296875,-0.06762333741784095,-0.24684125592708586,0.17541315593142062
1785389249225652500,4.366652587890625,-0.013317162212729453,-0.25855931238010527,0.08288251881012693
1785389249245740300,4.386740234375,-0.0953629927366972,-0.247776344820112,0.09298444530339911
1785389249265827300,4.406827392578125,-0.05866904658973217,-0.2459814242273569,0.06854867210183292
1785389249285914400,4.426914306640625,-0.06571896510124206,-0.22725743453502653,0.08323752452656626
1785389249306002400,4.44700244140625,-0.10019406615495681,-0.1888311116375029,0.117465518951416
1785389249326089500,4.46708935546875,-0.1040115786164999,-0.23214111492335796,0.10971245713923126
1785389249346177300,4.48717724609375,-0.15750059221982954,-0.2374428745932877,0.12554348360272125
1785389249366264300,4.507264404296875,-0.07695347582101822,-0.22707857083678243,0.08122295156745239
1785389249386352400,4.527352294921875,-0.17652268807590007,-0.20066957959979773,0.07538801660258322
1785389249406439400,4.547439453125,-0.21273557270765303,-0.19726517798379062,0.01009149643080309
1785389249426527500,4.567527587890625,-0.140806062528491,-0.17686814051270483,0.1323616026523523
1785389249446614500,4.587614501953125,-0.22797698098123073,-0.19560615873038767,0.09803765530604869
1785389249466701600,4.60770166015625,-0.001581131711602211,-0.1733539949119091,0.07585950657185167
1785389249486789400,4.627789306640625,0.14088614202737806,-0.15549305178970096,0.10246677859360352
1785389249506876400,4.64787646484375,-0.14207213694155216,-0.12938508932590484,0.03483262752080336
1785389249526964500,4.667964599609375,-0.044969607061147686,-0.11590046159178018,0.09167813021149486
1785389249547051500,4.688051513671875,0.002434533670544624,-0.12770575793683528,0.07248869669819251
1785389249567139300,4.708139404296875,-0.0679307959318161,-0.08287906647771597,0.039603586515970526
1785389249587226400,4.728226318359375,-0.03515197740197182,-0.021053893944621083,0.06657536273486912
1785389249607314400,4.748314453125,-0.11686696853637694,0.02840644866451621,0.03929795463290065
1785389249627401500,4.7684013671875,-0.08096446502804756,0.09062281247228383,0.04369403416737914
1785389249647488300,4.78848828125,0.013154665127396582,0.07862593907788396,-0.022278302906733004
1785389249667576300,4.808576416015625,-0.07002046168744563,0.10087634933069348,0.09026431789081543
1785389249687663400,4.828663330078125,-0.07623451389670372,0.14135449019148946,0.08708353243023156
1785389249707751400,4.84875146484375,0.05429623833298683,0.15314005892276764,0.042065501383785155
1785389249727838200,4.868838134765625,0.07860124302804469,0.18820713452026247,0.10496889760764315
1785389249747926500,4.888926513671875,-0.0027437457501888274,0.18970380281880497,0.11220847520604729
1785389249768013600,4.909013671875,-0.027062194448709487,0.1947198774151504,0.15914004825623704
1785389249788101400,4.929101318359375,0.05127250659763813,0.15979016446173192,0.054121813347842544
1785389249808188400,4.9491884765625,0.031255554485321045,0.15321575450748204,0.17005939207961782
1785389249828276500,4.9692763671875,-0.034114451047778126,0.18057839320749045,-0.018763116126321255
1785389249848363500,4.989363525390625,-0.05211129550933838,0.1627956298880279,0.12168154747756198
1785389249868450300,5.0094501953125,-0.004781973579525947,0.09779927997291088,0.008184219771064817
1785389249888538400,5.029538330078125,-0.007936638218164444,0.10425240163505077,0.04712282130597159
1785389249908625400,5.04962548828125,-0.023451602736115455,0.08061769741699099,0.055544594426266844
1785389249928713200,5.069713134765625,-0.09622223991453648,0.11522738463580608,-0.013571027375943958
1785389249948800300,5.08980029296875,-0.0695119276434183,0.1825698592856526,0.08304897968452424
1785389249968888300,5.109888427734375,0.004187514817714691,0.23149565662667154,-0.06536279034102335
1785389249988975400,5.129975341796875,-0.0786310536444187,0.2683816182143986,0.04869034461732954
1785389250009063400,5.1500634765625,-0.04652794241905212,0.270474352709949,-0.044103528283722694
1785389250029150500,5.170150390625,-0.008072247296571732,0.27235826676040886,0.007883026601094752
1785389250049237500,5.190237548828125,-0.0035761049211025238,0.20516323775723574,0.05027143979631364
1785389250069325600,5.21032568359375,-0.05754091934263706,0.24946853569075464,-0.05319583934303373
1785389250089412400,5.230412353515625,-0.009980126744508743,0.25877383191362024,0.03863169101020321
1785389250109500400,5.25050048828125,-0.047339843323826784,0.2994504179559648,0.029227811517380176
1785389250129587500,5.27058740234375,-0.05194119963943958,0.31643750085309147,0.06617790611619129
1785389250149675300,5.29067529296875,-0.024120295777916908,0.30333266621679067,-0.029437472212687135
1785389250169762600,5.310762451171875,-0.04022212027311325,0.34235680887699127,-0.06252221488654613
1785389250189850600,5.3308505859375,-0.06024141047298908,0.3257143016338348,-0.05457185867028311
1785389250209937700,5.350937744140625,-0.13929741153120995,0.29975597677379845,-0.08861258689472451
1785389250230024700,5.371024658203125,-0.0669587360292673,0.3028922289729118,-0.048603214323148125
1785389250250112500,5.391112548828125,-0.03606733868122101,0.3248721517212689,-0.08658577550854533
1785389250270199600,5.411199462890625,-0.02824585127532482,0.35080753409713505,-0.014584770995751022
1785389250290287600,5.43128759765625,-0.0331266090542078,0.3654707040913403,-0.06080801311349496
1785389250310374700,5.451374755859375,-0.04204465952515602,0.31861396810933945,-0.01782550648264587
1785389250330462700,5.471462646484375,-0.046203532770276064,0.3018544103577733,-0.05374242210881784
1785389250350549800,5.4915498046875,0.00737082102894783,0.2765595178425312,0.07643166217030957
1785389250370637600,5.511637451171875,-0.09034078066051006,0.2815314610362053,-0.016039353718236088
1785389250390724600,5.531724609375,-0.037652562046051025,0.29424408148452635,0.03456542795198038
1785389250410811600,5.551811767578125,-0.04066927951872348,0.3090219638995826,0.04918791887592524
1785389250430899700,5.571899658203125,0.022543255719542504,0.28730449147969483,0.052284186124522236
1785389250450986500,5.591986572265625,-0.11861351994276045,0.21938085594102738,0.04048290836745873
1785389250471074600,5.612074462890625,-0.046050388035178184,0.22552739587202666,0.009897636092826723
1785389250491161600,5.63216162109375,-0.05364274286031723,0.18551482669636607,0.05252077135937288
1785389250511249700,5.652249755859375,-0.13025894955098627,0.1413243873141706,0.0004135857695713639
1785389250531336400,5.67233642578125,-0.06569675326943397,0.04745455574467778,-0.030371501659788188
1785389250551424800,5.6924248046875,-0.03282908741235733,0.06042933426052331,0.12894388489704578
1785389250571511800,5.71251171875,-0.07000994029343127,0.05953735385686159,-0.036661760910414155
1785389250591598800,5.732598876953125,-0.11555237880647182,0.01268573244139552,0.0069403937224298716
1785389250611686700,5.752686767578125,-0.10612988594472407,0.08976867986097932,-0.019491284270398316
1785389250631773700,5.772773681640625,-0.008971241962909698,0.056226037351787085,0.03973145067933947
1785389250651861800,5.79286181640625,-0.07643149777352809,0.05245455598905682,-0.060975496901199217
1785389250671948500,5.812948486328125,-0.030597967359423637,0.030008184772729873,0.020107151146419346
1785389250692036600,5.83303662109375,-0.06468669944405556,0.03372764368727803,0.022084954025410115
1785389250712123600,5.85312353515625,-0.010689736318588257,0.025285686295479535,0.005962963525019586
1785389250732211700,5.873211669921875,-0.028431144714355466,0.04150792229995131,0.03489946394562721
1785389250752298500,5.893298583984375,-0.05312953264117241,0.062061611637473105,0.02461677405796945
1785389250772385500,5.913385498046875,-0.0680395170032978,0.06316811157464981,0.06324746042117477
1785389250792473600,5.9334736328125,-0.06374152754843235,0.09580372224152088,0.050129839368537064
1785389250812560600,5.953560546875,-0.009362287107110023,0.061972910440713166,0.031710312515497205
1785389250832648700,5.973648681640625,-0.03907528832554817,0.02317936166599393,0.04102149048987776
1785389250852735700,5.99373583984375,-0.03059562927186489,0.054517918259650466,0.010398096428252755
1785389250872823800,6.01382373046875,-0.0829798965036869,0.14273250054642558,0.05667670372873544
1785389250892910600,6.03391064453125,-0.04883738840520382,1.574182330855727,0.3481646183729172
1785389250912997600,6.05399755859375,-0.16523907751739025,0.03063464610800147,0.3520516889393329
1785389250933085700,6.074085693359375,-0.0966436801970005,-0.6941006009109317,-0.289761054318957
1785389250953172700,6.0941728515625,-0.005963292318582535,0.08652911341786385,-0.040387138109095395
1785389250973260500,6.114260498046875,-0.0771457835227251,0.309742971650511,0.1298385321818292
1785389250993347600,6.13434765625,0.1316442664295435,-0.7344329035602509,-0.35765842290520666
1785389251013435600,6.154435546875,-0.1392512343019247,0.3477716735325754,0.09182510093413293
1785389251033522700,6.174522705078125,-0.008258125257492066,0.12241568870469927,-0.01544562560878694
1785389251053610500,6.194610595703125,-0.037571898025274275,0.17649302358999847,0.03194507111944258
1785389251073697500,6.214697509765625,-0.038489597392082214,0.44063539679944513,-0.02540785137042403
1785389251093784600,6.23478466796875,0.13981705149114132,-0.2736670112714171,0.07536985989138484
1785389251113872600,6.25487255859375,-0.23134850324094294,0.06689356183856725,-0.07177892272733151
1785389251133959400,6.27495947265625,-0.021525603109598158,0.2405990005366504,0.027132885064743456
1785389251154047700,6.2950478515625,-0.0182429281771183,0.08818974010646342,0.07852123659439385
1785389251174134300,6.31513427734375,0.019754501783847807,-0.10637918453067541,-0.03173102650996298
1785389251194222300,6.335222412109375,-0.10529928033947944,0.12887611689046025,0.06531422022525221
1785389251214309000,6.35530908203125,-0.033225393253564835,0.19840368049442766,0.01170556229762733
1785389251234397200,6.375397216796875,-0.16722177576720715,0.35414836895763874,0.14666406784169375
1785389251254484200,6.395484130859375,-0.028855507606267927,-0.4913241121597588,-0.11993179946709423
1785389251274571300,6.4155712890625,-0.07074819144010544,0.04621960712224245,0.10870660456493496
1785389251294659300,6.435659423828125,-0.23862755433320998,1.3663073499217628,-0.3618423940589651
1785389251314746400,6.455746337890625,0.05391805267035961,0.3677325115434825,-0.09723276866395025
1785389251334834400,6.47583447265625,-0.16438918268978595,-0.7209970834039151,0.15227555104792118
1785389251354921200,6.495921142578125,0.28205110099613667,-1.0212864364020526,0.32065800462495536
1785389251375009300,6.51600927734375,-0.14696926133334637,-0.11791209367513655,0.15595577393062413
1785389251395096300,6.536096435546875,-0.023884733456373212,-0.041578064926713704,-0.005869988011941313
1785389251415184400,6.556184326171875,-0.041834816166758534,0.16025880488678812,-0.12008417701721191
1785389251435271200,6.576271240234375,-0.15655951197743415,0.5167541753619909,-0.41432058665193616
1785389251455359200,6.596359130859375,-0.03563713057041168,-0.163417415048182,-0.06452548100035638
1785389251475446300,6.6164462890625,0.01249298634827137,-0.104657621435076,0.012232874107360838
1785389251495533300,6.636533203125,-0.18705518800616264,-0.3634377369590103,0.06838756325598806
1785389251515621000,6.65662109375,0.01473462779521942,-0.5461249390140176,0.7181655863050371
1785389251535708200,6.676708251953125,0.018127777364850044,-0.45993850155398247,0.0359086409881711
1785389251555796500,6.69679638671875,-0.07427227391302585,-0.1524910934947431,0.03810640676077455
1785389251575883300,6.71688330078125,-0.09225801245868205,-0.1412190272435546,-0.061857832693681114
1785389251595971300,6.736971435546875,-0.024047230541706082,-0.08058306449502706,0.055543644578196105
1785389251616058400,6.757058349609375,-0.07956511962413787,-0.1299485684275627,0.020141966731473802
1785389251636146400,6.777146484375,-0.014086393019556998,-0.10893778297230601,-0.0046333223564550274
1785389251656233200,6.797233154296875,-0.04241699996888637,-0.09213234025239944,0.07284932843782008
1785389251676320300,6.8173203125,-0.07217851650416851,-0.13860124596059323,0.002383643733523786
1785389251696408300,6.837408203125,-0.03917348800301552,-0.18113690387308595,0.10185297581050544
1785389251716495400,6.857495361328125,-0.03771978206336498,-0.15920403513684867,0.04054137882273644
1785389251736583200,6.877583251953125,0.0024117373168468475,-0.07285597737431526,0.11618793676365166
1785389251756670200,6.897670166015625,-0.20233108307123182,0.4418592395059764,0.24811372354831546
1785389251776758300,6.91775830078125,-0.006267828223109245,0.027860797480493783,0.2949706056607887
1785389251796845300,6.93784521484375,0.06345803443193436,-0.6337630365870892,-0.16001206358410416
1785389251816933000,6.95793310546875,-0.0862263310790062,-0.41911183951646086,-0.1404313109319657
1785389251837020200,6.978020263671875,-0.05713701471686363,-0.14114990753009915,0.0467823190389201
1785389251857107200,6.998107177734375,-0.018178046247363088,-0.07866115652173757,0.11112491775304079
1785389251877195300,7.0181953125,-0.018512392768263816,0.1699544156014919,0.28713673369735476
1785389251897282300,7.0382822265625,-0.010964461606740951,-0.47418242322281,-0.1924956254944205
1785389251917370400,7.058370361328125,-0.07972352505624294,-0.18904197790920732,-0.029232999149151145
1785389251937457400,7.07845751953125,-0.12405249612629413,-0.1825501316718757,0.04638678038269281
1785389251957545200,7.098545166015625,-0.08079027750492096,0.36555604428723454,0.4200585092494264
1785389251977632300,7.11863232421875,0.03928104003071785,-0.6250114287242293,-0.42578021136447786
1785389251997719300,7.13871923828125,-0.1590536668807268,-0.019085078089684248,0.12880049437098204
1785389252017807400,7.158807373046875,-0.059465165403485294,-0.1400856392994523,-0.04158398321084678
1785389252037894100,7.17889404296875,-0.05157762702405452,-0.13074424884989858,0.010863558515533804
1785389252057982200,7.198982177734375,-0.09597732524275779,-0.1281906188443303,-0.048944136715307826
1785389252078069200,7.2190693359375,-0.06348492243885993,-0.14947978284955024,0.019400135388225315
1785389252098157000,7.239156982421875,-0.02832417720854282,-0.15952362248003482,-0.015434117834083735
1785389252118244000,7.259244140625,-0.06158347273170948,-0.19321473354920743,0.030232787308841942
1785389252138332400,7.27933251953125,-0.03454173654913902,-0.17610943109989166,0.010045447065681218
1785389252158419500,7.29941943359375,-0.05194003059566021,-0.1538352015800774,0.024277495633624493
1785389252178508000,7.319508056640625,-0.019563363125920295,-0.16703092937022446,0.03383804525919258
1785389252198595000,7.339594970703125,-0.026558921101689337,-0.17322832270562646,0.05425323944147676
1785389252218682000,7.35968212890625,-0.0603232435375452,-0.17226926841512322,0.04651679997052997
1785389252238770000,7.37977001953125,-0.08222995491921901,-0.16757307342290878,0.04446848913859576
1785389252258857000,7.39985693359375,-0.05667816503345966,-0.18222426071837544,0.08279719688054174
1785389252278945000,7.419945068359375,-0.05618307499289512,-0.18225246389955282,0.06321450799964368
1785389252299032000,7.440031982421875,-0.028459201765060425,-0.1620098863378167,0.0982551705142483
1785389252319120000,7.460119873046875,-0.07608546081483364,-0.16147607172206044,0.08006459357887506
1785389252339207000,7.48020703125,-0.05456219579279423,-0.19224749595224855,0.057658298644609744
1785389252359294000,7.5002939453125,-0.045613165661692615,-0.16967764448672532,0.05911463493276387
1785389252379382000,7.520382080078125,-0.055302785027027124,-0.13982026636153458,0.04387574740983546
1785389252399469000,7.540468994140625,-0.05422141953110694,-0.17082710678279397,0.04164762303158641
1785389252419557000,7.56055712890625,-0.019178747722506523,-0.15350406992956994,0.028210962625034152
1785389252439644200,7.58064404296875,-0.03479951070249081,-0.16301292590051888,0.06100143506005406
1785389252459732000,7.60073193359375,-0.05434826078116894,-0.17339374240040778,-0.021446729187108576
1785389252479819000,7.620819091796875,-0.05659107127189636,-0.11934943300187587,0.03034242169577628
1785389252499906000,7.640906005859375,-0.05280629203617573,-0.13762392536103724,-0.023924773205816745
1785389252519994000,7.660994140625,-0.033709377378225325,-0.11784969596341252,0.0375477864973247
1785389252540081200,7.6810810546875,-0.08389116612970829,-0.08678571852743625,-0.009094137690216303
1785389252560169000,7.7011689453125,-0.05156359849870205,-0.10292831342443823,0.04068495201189071
1785389252580256000,7.721256103515625,-0.06642623658776282,-0.09717354929000138,0.04057250461336225
1785389252600344000,7.741343994140625,-0.01882277389168739,-0.12433394341617822,0.011556180422194301
1785389252620430800,7.761430908203125,-0.019760347002744674,-0.1240503041692078,0.02853884287253022
1785389252640519000,7.781518798828125,-0.05183657022118568,-0.10157865238115191,0.0017476473849266766
1785389252660606000,7.80160595703125,-0.03178805392682552,-0.08259045879468321,0.047860067805647846
1785389252680693000,7.82169287109375,-0.03669862232208252,-0.07105696512833237,0.04686345798373222
1785389252700781000,7.841781005859375,-0.08088380100727081,-0.07682385809198021,0.07121756251752376
1785389252720868000,7.8618681640625,-0.05054477684497833,-0.08726634165123104,0.04690678566880524
1785389252740956200,7.8819560546875,-0.05176818116009235,-0.06141586107984185,0.008049633605964482
1785389252761043000,7.90204296875,-0.06336392640769481,-0.0902073635391891,0.026300598959065974
1785389252781131000,7.922131103515625,-0.0807926155924797,-0.07111074114218353,-0.020792137735895812
1785389252801218000,7.942218017578125,-0.03730769413113594,-0.08044204858914017,0.040746765201725064
1785389252821305000,7.96230517578125,-0.07113163779973983,-0.0674764762930572,0.018745032480359077
1785389252841393000,7.982392822265625,-0.05468143825829029,-0.07552227397412062,0.007322597973048687
1785389252861480000,8.00247998046875,-0.07215455110669136,-0.03937558644637465,0.05082662599366158
1785389252881568000,8.022568115234375,-0.04168167143166065,-0.053279316375404596,-0.0068764251081272956
1785389252901655000,8.042655029296874,-0.009223755419254303,-0.04556655004099011,0.06668094200119376
1785389252921742800,8.062742919921876,-0.0665408028781414,-0.022169161710143086,0.010772117372415959
1785389252941830000,8.082829833984375,-0.05204582905769348,-0.042647593854367734,0.008067936447635293
1785389252961918200,8.102918212890625,-0.07394844878613949,-0.016504267816245553,0.04207465280462056
1785389252982005000,8.1230048828125,-0.039926936718821526,-0.06417085887640714,0.021373152494244277
1785389253002092000,8.143092041015626,-0.04608779743611812,-0.048071956990659234,0.0698689974527806
1785389253022180000,8.16318017578125,-0.0371305839985609,-0.07077960949167608,-0.021281930546835064
1785389253042267100,8.18326708984375,-0.09182721982598305,-0.041567689663171765,0.07942297120708972
1785389253062355000,8.20335498046875,-0.050066053417325014,-0.07519991015195845,0.005052862942777574
1785389253082442000,8.22344189453125,-0.023831541964411736,-0.09513020689412952,0.049550066719204186
1785389253102530000,8.243530029296876,-0.0675643007069826,-0.11525368812084197,0.025316556357778606
1785389253122617000,8.2636171875,-0.05020107797384262,-0.11408961277753114,0.07205620529875159
1785389253142704000,8.2837041015625,-0.08356208030581473,-0.0841302355825901,0.03155961546581238
1785389253162792000,8.3037919921875,-0.07925123136937617,-0.1206632920794189,0.016501783598214387
1785389253182879200,8.323879150390624,-0.05413374124765396,-0.11685060192346572,0.046532070604898036
1785389253202967000,8.343967041015626,-0.05675298383533954,-0.14629296950697898,0.018407398023828864
1785389253223054000,8.36405419921875,-0.05275134697854519,-0.13571341556459665,0.023769290383160113
1785389253243142100,8.38414208984375,-0.05088672215044498,-0.13806976943239568,0.012888159678317605
1785389253263229200,8.404229248046875,-0.06279226399958134,-0.1379598793171346,0.06116188631877303
1785389253283316200,8.424316162109376,-0.02960311110317707,-0.13418021464794874,0.0027541575463488695
1785389253303404000,8.444404052734376,-0.05508417384028434,-0.1473833950921893,0.05028587018046528
1785389253323491000,8.464490966796875,-0.08514145845174789,-0.17095643225088714,0.02323975008372217
1785389253343579100,8.4845791015625,-0.07208031682670116,-0.23777809789702295,0.025205789459683
1785389253363666200,8.504666259765624,-0.11752572470605373,-0.3038809477493167,0.08835512326862663
1785389253383754200,8.524754150390624,-0.09570727612972259,-0.3513600534133613,0.08148333780299871
1785389253403841300,8.54484130859375,-0.11593933229744434,-0.39870647260844705,0.07153254675082862
1785389253423928300,8.56492822265625,-0.07721417258381844,-0.45396585688516494,0.03346840822920203
1785389253444016000,8.58501611328125,-0.07489537424743176,-0.45916430231109256,0.05669522576611489
1785389253464103200,8.605103271484374,-0.06524316428303718,-0.4814152970857918,0.042176140417717396
1785389253484191200,8.625191162109376,-0.010530746364593505,-0.5183291695937514,0.06456358452104032
1785389253504278300,8.6452783203125,-0.0063046531021595,-0.5090441855065524,0.034255686149373646
1785389253524366000,8.665365966796875,-0.06993570601344108,-0.4971994339339435,0.05631704010348767
1785389253544453000,8.685453125,-0.028953707283735274,-0.5073877966016531,0.04025507269464433
1785389253564540200,8.7055400390625,0.03675765903294086,-0.4955639416866004,0.08394033903367817
1785389253584628200,8.725628173828126,-0.2785141590416431,-0.5081638955406844,-0.031962204917334015
1785389253604715000,8.745715087890625,0.13269523678719997,-0.5200780590876937,0.10739997894577681
1785389253624803000,8.765802978515625,-0.08198328668177127,-0.487509814568609,0.11225552921816706
1785389253644890000,8.78589013671875,-0.07796995938718318,-0.48130087692588563,0.12161924109738319
1785389253664978000,8.80597802734375,-0.050586277899146076,-0.4686703818030655,0.15289108913037924
1785389253685065000,8.82606494140625,-0.11518179192841052,-0.3529588669121265,0.18092735277563332
1785389253705152000,8.846152099609375,-0.0818728120446205,-0.26945202392488715,0.15863668357767163
1785389253725240300,8.866240234375,-0.09527706801891327,-0.2088460179232061,0.17738211791682987
1785389253745327400,8.886327392578124,-0.11260112778544425,-0.20343509879037736,0.11525365158822387
1785389253765415200,8.906415283203126,-0.07479016030728816,-0.1569917659148574,0.14507774849832056
1785389253785502200,8.926502197265625,-0.05218845239877701,-0.09171396870985626,0.09854768718741834
1785389253805590300,8.94659033203125,-0.09060849168598652,-0.03211728588119149,0.05245678447876125
1785389253825677000,8.966677001953125,-0.06380757852196693,-0.0030079496443271635,0.06589033961277455
1785389253845764000,8.98676416015625,-0.06209259129762649,0.02133577962592244,0.018790588655136525
1785389253865852200,9.00685205078125,-0.02307224802970886,0.05514511024728417,0.1037868664825335
1785389253885939200,9.026939208984375,-0.1270475862890482,0.07909180302396417,0.0009640957918018102
1785389253906027000,9.047027099609375,-0.05491992318928241,0.09579641571789979,-0.03223638221621513
1785389253926114000,9.067114013671874,-0.07097557045519351,0.07540843833610415,-0.005711180721037089
1785389253946202000,9.0872021484375,0.012447393640875815,0.11050897781178355,0.020757724009640512
1785389253966289200,9.1072890625,0.04077098632752895,0.1136417228795588,0.06778817259073257
1785389253986377200,9.127377197265625,-0.19944120684862135,0.01601195425465703,-0.1203852423230186
1785389254006464300,9.14746435546875,0.04489537278115749,-0.0424691685475409,0.043065855799056585
1785389254026551300,9.16755126953125,0.1098369237691164,-0.12127031806185841,0.054453547786548734
1785389254046639000,9.18763916015625,-0.3451800496041775,-0.20341332534998655,0.12579385990090666
1785389254066726100,9.20772607421875,-0.09806348386704922,-0.2737533743806183,-0.13573913452774286
1785389254086814200,9.227814208984375,0.1670049181461334,-0.43122357146218415,0.2062192496161908
1785389254106901200,9.2479013671875,-0.1695844132453203,-0.42896848601177334,-0.028161497460119426
1785389254126989000,9.267989013671874,-0.18761691354215143,-0.48217210680246353,0.07182393091283738
1785389254147076000,9.288076171875,-0.028256957191228865,-0.5198933501705527,0.09027597179599106
1785389254167161900,9.308161865234375,-0.03818681505322456,-0.5677632087178528,0.05054711493253707
1785389254187250200,9.328250244140625,-0.15157412478029728,-0.5700545345254242,0.12373488154448568
1785389254207337000,9.3483369140625,0.02175999638736248,-0.5650917975515127,0.07889175040721892
1785389254227425000,9.368425048828126,-0.10970657538771629,-0.49906172067448495,0.17330949818305671
1785389254247512000,9.388511962890625,-0.07093523844480513,-0.5703970643527806,0.09240023394096643
1785389254267600100,9.40860009765625,-0.12290391061306,-0.607344839130342,0.21210260856635868
1785389254287687200,9.428687255859375,-0.0773158793926239,-0.5529344728983938,0.03394468397144228
1785389254307774000,9.44877392578125,-0.19118892681002617,-0.5805974097192287,0.10625029745399951
1785389254327862000,9.468862060546876,-0.028588381102681158,-0.5981918108597397,0.23431473263539374
1785389254347949000,9.488948974609375,-0.18952128585875033,-0.5765868589036166,-0.03369845412541181
1785389254368036900,9.509036865234375,0.09349836790859699,-0.591209550756961,0.18081348060499874
1785389254388124000,9.5291240234375,-0.23327041121423242,-0.6850944337651134,0.059628539271652695
1785389254408212000,9.5492119140625,-0.26642157018780704,-1.3270206108026206,0.1457274080460891
1785389254428299000,9.569299072265625,0.3269534880399704,-1.293049806009233,0.08931246052607894
1785389254448386000,9.589385986328125,0.33164369168281554,-1.0442154765687883,0.20276673454213887
1785389254468473900,9.609473876953125,-0.22658231175243854,-1.3099141393095255,0.08979428922627121
1785389254488561000,9.629560791015624,-0.3997586120098829,-1.4729045611172913,0.2238210668781772
1785389254508649200,9.649649169921876,-0.005793780970573425,-1.6040009844057261,0.1770676451401785
1785389254528736000,9.669736083984375,-0.07195990531742573,-1.6452625307291746,0.25972715058308093
1785389254548824000,9.689823974609375,-0.19707623128294943,-1.7052366685681044,0.20074326589051633
1785389254568911000,9.7099111328125,-0.1939759271800518,-1.7463900783419608,0.17065533041246234
1785389254588998100,9.729998046875,-0.08305471530556678,-1.8324775854721664,0.26645386502221224
1785389254609086000,9.7500859375,-0.1597726288050413,-1.7919746024310588,0.25739468904752283
1785389254629173000,9.770173095703125,-0.19997896698713302,-1.7957367314435542,0.38059166432302444
1785389254649261000,9.790260986328125,-0.3010720278084278,-1.9793536155641078,0.3558250699982047
1785389254669348000,9.81034814453125,-0.162003748857975,-1.985287974049151,0.42166422741301357
1785389254689436000,9.830435791015624,-0.03391746717095375,-1.9272902508497236,0.3997633612502366
1785389254709523000,9.85052294921875,-0.2614519650816917,-1.8702230864986775,0.40443566391021013
1785389254729610000,9.87060986328125,-0.30028993752002714,-1.931909435082972,0.46764253659266974
1785389254749698000,9.890697998046875,-0.14852642764747143,-1.9328676125906408,0.4951614618329331
1785389254769784800,9.910784912109374,-0.0067179100781679145,-1.9332398069038985,0.6483097405947744
1785389254789873200,9.930873046875,-0.09196575151383876,-1.9261957336112856,0.6040266179604455
1785389254809960200,9.950960205078125,-0.12681085492372512,-1.86543497543931,0.6317009894907474
1785389254830048000,9.971048095703125,-0.10571312183737754,-1.9016355851113795,0.6349465472832322
1785389254850135000,9.991135009765625,-0.045476387539505954,-1.9188506315454839,0.6465653811454772
1785389254870222000,10.01122216796875,-0.11737667162418365,-1.794779138457775,0.5918559589017183
1785389254890310100,10.03131005859375,-0.1148123740941286,-1.85550365627259,0.4519518867142498
1785389254910397000,10.05139697265625,-0.29201135399639605,-2.13621532535851,0.45052568983603264
1785389254930485000,10.071485107421875,-0.10404314279854297,-2.2719717032819986,0.31471173650640993
1785389254950572000,10.091572021484374,-0.005682137289643287,-2.317689936753362,0.3480483350494876
1785389254970660000,10.11166015625,0.06282908887863159,-2.300033722423017,0.3892261486122384
1785389254990747000,10.131746826171875,-0.031331542330980296,-2.216871455089748,0.2671871842654422
1785389255010834000,10.151833984375,-0.27316286114156246,-2.2634293542556465,0.29445184248369183
1785389255030922000,10.171921875,-0.26328502572774887,-2.350214196000248,0.2702365618987009
1785389255051009000,10.192009033203124,-0.21826865691542624,-2.3630831760540603,0.2831234064027667
1785389255071097000,10.21209716796875,-0.21976795556247233,-2.442904608526826,0.28355595260113475
1785389255091184000,10.23218408203125,-0.1444184078067541,-2.554339615142345,0.22774909050948916
1785389255111272200,10.252272216796875,-0.08870879554450511,-2.616787888009846,0.20995693830717355
1785389255131359000,10.27235888671875,-0.0063625207692384715,-2.5362092074289917,0.07814929800946264
1785389255151446000,10.292446044921874,0.027428689673542974,-2.4586381842315195,0.1273236998166889
1785389255171534300,10.312534423828126,-0.11202537372410297,-2.3740246951766313,0.009711465870961547
1785389255191621400,10.332621337890625,-0.25596856523454187,-2.3658599472910162,0.12590283670071512
1785389255211709200,10.352709228515625,-0.20119711060523984,-2.431355625030398,-0.01152052458692342
1785389255231796200,10.372796142578125,-0.16060440345406532,-2.4320506215572357,0.23956457945499568
1785389255251884300,10.39288427734375,-0.19022271212637423,-2.5375562381237744,0.34038269579242914
1785389255271971300,10.412971435546876,-0.13755261369049548,-2.278483569394052,0.3891801905786618
1785389255292058000,10.43305810546875,-0.15196341635882854,-1.9642755811586974,0.30711287887524813
1785389255312146400,10.453146484375,-0.17829378940165042,-2.204344128080457,0.3777966633096337
1785389255332233500,10.4732333984375,-0.5742571007817984,-2.5307781222909687,0.3472677425984293
1785389255352321300,10.4933212890625,-0.1374170046120882,-2.450104749163985,0.6824703688718378
1785389255372408300,10.513408203125,0.1537783568263054,-2.444360652554035,0.6368931513063609
1785389255392496400,10.533496337890625,0.16574994964897632,-2.617414787736535,0.8866109855830668
1785389255412583400,10.55358349609375,0.2468739891529083,-2.3556775759726762,0.7379071555420756
1785389255432670500,10.57367041015625,-0.00825403360426426,-2.548683781337738,0.3943652650663629
1785389255452758300,10.59375830078125,-0.3259942876189947,-2.598119720157981,0.7842004124224186
1785389255472845300,10.61384521484375,-0.0811503429889679,-2.507091834016144,-0.17825338432602583
1785389255492933400,10.633933349609375,-0.20746318526268004,-2.564379655380547,0.421770793060027
1785389255513020200,10.654020263671875,-0.12481003649532794,-2.553053666985035,-0.4359346352299675
1785389255533108200,10.674108154296874,0.45544367435276506,-2.558215287531912,0.31606753502953794
1785389255553195300,10.6941953125,-0.49931028860807414,-2.4065169518500564,-0.625506226503849
1785389255573283000,10.714282958984375,-0.5046902280807495,-2.4977231171682477,-0.03756561441496015
1785389255593370000,10.7343701171875,-0.45316520802676674,-2.597700033441186,-0.00539740206412971
1785389255613457200,10.75445703125,-0.5279156208455562,-2.735292102359235,-0.562544962612912
1785389255633545500,10.77454541015625,-0.4305827893406152,-2.520755325448513,0.4699010195765644
1785389255653632500,10.794632568359376,-0.5623696791112422,-2.5574820048213005,-0.8711304347913712
1785389255673720300,10.81472021484375,-1.132853106573224,-2.6457863112181426,0.201712512781471
1785389255693807400,10.834807373046875,-0.7830641018688679,-2.6040657690808175,-0.3645011649394408
1785389255713895400,10.8548955078125,-0.4155050471961498,-2.4079010996848345,0.3210417067129165
1785389255733982200,10.874982177734376,-0.46157706254124636,-2.4040303957313296,-0.13886132166888565
1785389255754069200,10.8950693359375,-0.423835653167963,-2.4234920520484446,0.12101462626773864
1785389255774157300,10.9151572265625,-0.21155659205615518,-2.1929919823303816,-0.03340023836381733
1785389255794244400,10.935244384765625,-0.41731121983528136,-2.1987699812099337,-0.20293321368284523
1785389255814332200,10.955332275390624,-0.42426644580066203,-2.140099765576422,-0.035642720060981806
1785389255834419200,10.975419189453126,-0.2832809350520372,-2.2501105846077203,-0.11530797559134662
1785389255854507300,10.99550732421875,-0.1638169357597828,-2.3384409022286534,-0.00507343080677092
1785389255874594300,11.01559423828125,0.0603103840559721,-2.4527657850667834,0.03329075010735542
1785389255894681000,11.03568115234375,0.1329074182331562,-2.508406716006994,0.18176248842552303
1785389255914769400,11.055769287109374,0.29916999357938767,-2.3798083931446072,0.1468195871969685
1785389255934856400,11.0758564453125,0.22399872500002382,-2.2626621692754325,0.0451958170324564
1785389255954944300,11.0959443359375,0.03374327964782715,-2.3153590095877647,0.12168441528808324
1785389255975031300,11.11603125,0.11778759051263332,-2.357764903640747,0.3158761041106656
1785389255995119400,11.136119384765625,0.2230190663129091,-2.1918181162454187,0.023064247386343776
1785389256015206400,11.156206298828126,0.34279461577236653,-2.2032572096265852,0.01379705468416214
1785389256035294200,11.176294189453126,0.18654022422134875,-2.2155890140637755,-0.3672377502964809
1785389256055381200,11.19638134765625,0.12003916883170604,-2.1597838324725624,-0.14646313844211398
1785389256075468300,11.21646826171875,-0.07457856338322162,-2.1304551543965933,-0.36577085608169435
1785389256095556400,11.236556396484374,-0.26258476850390433,-2.1276479880213737,-0.351479880400747
1785389256115643100,11.25664306640625,-0.3152975370377302,-2.170103128043562,-0.3853838305030018
1785389256135731200,11.276731201171875,-0.2881400655210018,-2.249682422323525,-0.3604988704955205
1785389256155818200,11.296818359375,-0.04209960458278656,-2.321020104089379,-0.3151870989331975
1785389256175906800,11.31690673828125,0.12710486943423746,-2.171864730888605,-0.08981211714390665
1785389256195993900,11.336993896484374,-0.2141314109802246,-2.1609905779138208,-0.4539380555627867
1785389256216081000,11.357080810546876,-0.27520167349278923,-2.0511054310888053,-0.2568569654416293
1785389256236169000,11.3771689453125,-0.20731354765892027,-1.919331693060696,-0.15803305512871593
1785389256256255700,11.397255859375,-0.2655962252795696,-2.0367568800017235,-0.11506064976677298
1785389256276343800,11.41734375,-0.19664894578158854,-1.9851894821107385,-0.10240812547523527
1785389256296430800,11.437430908203124,-0.0847094967752695,-1.7923371521331368,-0.08657236803770064
1785389256316519000,11.457518798828126,-0.2703518953740597,-1.7740394250288605,0.07270582831390202
1785389256336606000,11.47760595703125,-0.4002800055354833,-1.784754880310595,0.0794302411980927
1785389256356694000,11.497694091796875,-0.49177404788434503,-1.848441901192814,0.15612411623485387
1785389256376781000,11.517781005859375,-0.2088198605686426,-2.0444278530210256,-0.028376382319815454
1785389256396868000,11.5378681640625,0.22879180449545383,-2.051793997874856,0.4796660787982866
1785389256416956000,11.557955810546876,-0.0570686256557703,-2.040711462846398,0.019356807703152297
1785389256437043000,11.57804296875,-0.20295301436185836,-2.1209765474334357,0.05099526055883616
1785389256457131000,11.598131103515625,-0.020990765580534934,-1.9450496332935987,-0.14733389339465647
1785389256477217800,11.6182177734375,0.1774187601327896,-1.9010805815771221,-0.24619780692439525
1785389256497305900,11.638305908203124,0.14467676648199557,-1.7089941214054822,-0.2508630953216925
1785389256517393000,11.658392822265625,-0.04572013316750526,-1.6733005844727158,-0.2763847457975149
1785389256537480700,11.678480712890625,0.04570668916404247,-1.8310900766365228,-0.15218089503441004
1785389256557567700,11.698567626953125,0.6353770476549864,-1.9515306658759712,0.276661005455628
1785389256577654800,11.71865478515625,0.8250695984274149,-2.0594877672478558,0.3506273186920211
1785389256597743000,11.7387431640625,0.9305062414109706,-1.988514242619276,0.3693296080091968
1785389256617830100,11.758830078125,0.4601847314000129,-1.880813746356964,0.44167434792574495
1785389256637918000,11.77891796875,0.375511474981904,-2.0675043388344347,0.6173850985642522
1785389256658005000,11.7990048828125,0.5672942760318518,-2.0729957758575677,0.5929957035213709
1785389256678093000,11.819093017578124,0.6663280662357807,-1.9007573409721255,0.4547531713379547
1785389256698179800,11.839179931640626,0.29295535684823987,-1.7587354729130864,0.5857923480138182
1785389256718268000,11.859267822265625,0.3566583059519529,-1.82924459490031,0.2325768759921193
1785389256738355000,11.87935498046875,0.5299859973788261,-1.6800119186796247,-0.11446856562513857
1785389256758442000,11.89944189453125,0.34206863958537576,-1.811987755151093,-0.43878933054134245
1785389256778529800,11.91952978515625,0.3386784126251936,-1.7586796510726213,-0.1356569726696238
1785389256798616800,11.939616943359376,0.0918424173951149,-1.549987070145458,-0.8504860714957118
1785389256818705000,11.959704833984375,-0.1968552820086479,-1.7648697378844023,-0.015824505391158164
1785389256838792000,11.9797919921875,-0.4191887041449547,-1.5289108182385562,-0.9410011127445846
1785389256858880000,11.9998798828125,-0.27745442085564137,-1.6074520016424356,-0.4682245742643252
1785389256878967000,12.019967041015626,-0.10974456931054591,-1.8173203483507037,0.28081158579643817
1785389256899055000,12.04005517578125,-0.34714521219730377,-1.5018188131734729,-0.7002103159628809
1785389256919142000,12.060141845703125,0.0035293431699275966,-1.3273369832754134,0.3383823157554492
1785389256939229000,12.08022900390625,-0.08977963964641093,-0.9268050488054752,-0.4631433985425159
1785389256959317000,12.10031689453125,-0.46171793231666086,-0.5677895122028886,0.20232823352701962
1785389256979404000,12.120404052734376,-0.7401157715022564,-0.7268556001737714,-1.248289457784593
1785389256999491800,12.140491943359375,-0.3458054880261421,-0.663077686137706,0.10269505265783518
1785389257019579000,12.160578857421875,-0.0600181231111288,-0.7789085896246135,-1.3951444450885058
1785389257039667000,12.1806669921875,0.09176292241811752,-0.9071746117927133,0.04620517673809081
1785389257059754000,12.20075390625,0.2380950548917055,-0.5499667091339826,-0.8967366582781076
1785389257079841800,12.220841796875,0.4045329868048429,-0.50575230435431,-0.10903517893217503
1785389257099928800,12.2409287109375,0.2556301270604133,-0.48114948575645683,-0.3175443295838311
1785389257120016000,12.261015869140625,0.15771978792846203,-0.532863890902698,-0.2880845724740997
1785389257140104000,12.28110400390625,0.5675497120976448,-0.947864057316631,-0.014799107866175472
1785389257160190700,12.301190673828126,1.307531628087163,-0.6731769092172384,-0.04835201604105532
1785389257180278800,12.32127880859375,1.1475164226979016,-0.5119904680915176,0.0528986464947462
1785389257200365800,12.34136572265625,0.15217910493612288,-0.5723388460703194,0.10381952664311975
1785389257220454000,12.361453857421875,0.43160219551622864,-0.5648075737826526,0.35107024015393107
1785389257240541000,12.381541015625,0.11040449452400207,-0.7366494105659425,-0.11877977988775819
1785389257260629000,12.40162890625,0.2768757441848516,-1.0757802431337535,-0.6620449820891022
1785389257280716000,12.421716064453125,0.730782125967741,-0.9590214111469686,-0.21354897144977003
1785389257300803000,12.441802978515625,0.35758068149387834,-1.2059801559738814,-1.472551948287338
1785389257320891000,12.461890869140625,0.6133505092859268,-1.3252967096194623,-0.4634093194697052
1785389257340978000,12.48197802734375,0.5316688358992337,-0.9413673887737095,-1.2154358204528688
1785389257361066000,12.50206591796875,-0.1565396382331848,-1.336170570333302,-1.2673394645608962
1785389257381152800,12.52215283203125,0.072897478428483,-1.5539080429814756,0.6519649021014571
1785389257401240800,12.54224072265625,0.33522038112580776,-1.2779523362509906,-0.8351669218108058
1785389257421328000,12.562327880859375,0.3537619999885559,-0.6488536382131278,0.9947625866137444
1785389257441415000,12.582414794921876,-0.28735797523260115,-0.8958709813594817,-0.6229029121376574
1785389257461502700,12.602502685546876,-0.8680050693124532,-0.9674250823549926,-0.05352598461285233
1785389257481589800,12.62258984375,-0.37499592667520043,-0.6622733840174972,-0.07338420249950141
1785389257501678000,12.642677978515625,-0.4487947378575802,-0.858200153004378,-0.2858927249856293
1785389257521765000,12.66276513671875,-0.4066705833554268,-0.5465966481789947,-0.6382897932965308
1785389257541853000,12.68285302734375,-0.5263385807871819,-0.1518549875482917,-0.20961473727338015
1785389257561940000,12.70293994140625,-0.9423550846368074,-0.6230496271319687,-0.564411267941445
1785389257582028000,12.723028076171875,-0.7002765130668878,-0.5013352185644209,-1.2998193001441656
1785389257602114800,12.74311474609375,-0.5294079052299261,-0.5480127985872328,-1.4112898164644836
1785389257622201900,12.763201904296874,-0.2497977676451206,-0.8050674054928123,-1.9217527827277778
1785389257642290000,12.7832900390625,0.18411387385725975,-0.45427083118110895,-1.7520299839250741
1785389257662377000,12.803376953125,0.05835282024741172,-0.7120235033534467,-1.2336376859672367
1785389257682464800,12.82346484375,0.02495148590505123,-0.8444377312421798,-1.6368594440430402
1785389257702551800,12.8435517578125,0.2985813800364733,-0.909721812057495,-1.23408382229954
1785389257722640000,12.863639892578124,0.8518167355775833,-0.5351194147445261,-1.1034798587031662
1785389257742727000,12.883726806640626,0.8287883266896009,-0.7940601276576519,-1.4558679399900138
1785389257762815000,12.90381494140625,1.02856972527802,-1.01463340825364,-1.4403879006549716
1785389257782902000,12.923902099609375,1.5435995610654354,-0.4948506788507104,-1.3246435064077378
1785389257802989000,12.943989013671874,1.667569055083394,-0.852398188727349,-1.0822960547685623
1785389257823076900,12.964076904296874,1.087061661735177,-0.6003427052833139,-0.970195716112107
1785389257843164000,12.984163818359375,1.1174451095610856,-0.2646761878252029,0.15235142929572612
1785389257863252000,13.004251953125,0.29945407121777534,-0.21900047832131384,-0.9761147308975457
1785389257883339000,13.024339111328125,0.13795476475059984,-1.1068652633577585,0.512226614934951
1785389257903426800,13.0444267578125,1.2280454189181327,-1.244841070896387,-0.06608947891406715
1785389257923513900,13.064513916015626,1.4791560227274894,-0.3348597311198711,0.35023923268988727
1785389257943601000,13.084600830078125,-0.05565408268272876,-0.4066099392093718,0.05031414642687887
1785389257963689000,13.10468896484375,-1.3574503819882868,-1.011803737785667,0.13814382104929535
1785389257983775700,13.124775634765625,-0.3056248688071966,-0.9575731120347976,0.24858415407165885
1785389258003863800,13.14486376953125,-0.1018020858734846,-0.2824687418863177,0.0930272067328915
1785389258023950800,13.164950927734376,-0.971591700515151,-0.1681139023013413,-0.3642061640482396
1785389258044039000,13.185038818359375,-1.4579782101422547,-0.31340237094089385,-0.09274692848678678
1785389258064126000,13.2051259765625,-1.1828308971852064,-0.3112517687782645,-1.076760121016577
1785389258084214000,13.225214111328125,-1.0243623367160557,-0.13447612885460256,-0.32412078536469485
1785389258104301000,13.245301025390624,-1.068726379099488,-0.11982567221149802,-1.2348287954479455
1785389258124388000,13.26538818359375,-0.8181278164654969,-0.06738748283535241,-0.0888532089838758
1785389258144476000,13.285475830078125,-0.17777298039793968,0.01591448522955179,-0.9452611813418567
1785389258164563000,13.30556298828125,0.018179215291142463,-0.003561491873860359,-0.8797920262832194
1785389258184651300,13.3256513671875,0.01584755747318268,-0.14158727603405713,-0.672879752901569
1785389258204738000,13.345738037109374,0.41091012062132354,-0.423615580676496,-0.821861815362051
1785389258224826000,13.365826171875,0.9700561615109443,-0.758781309005618,-0.37809528093002737
1785389258244913200,13.3859130859375,1.8970166931390762,-0.4825272038504481,-0.26301084842886774
1785389258265000200,13.406000244140625,1.6291753192812204,-0.11462371965423225,-0.0581332226799801
1785389258285088000,13.426087890625,0.886937148797512,-0.09595321371480822,-0.22125797492451965
1785389258305175000,13.446175048828126,0.9495873739778995,-0.407896471888572,-0.15821980987247078
1785389258325263400,13.466263427734376,1.335541917040944,-0.3061310647636652,-0.2632792901067063
1785389258345350100,13.48635009765625,1.0505173531919718,-0.14836232312694192,-0.36513873219061643
1785389258365438200,13.506438232421875,0.6205559106200933,0.06506488510668278,-0.05894026474654674
1785389258385525200,13.526525146484374,0.030430209577083586,-0.08567191206663846,-0.2873330234544352
1785389258405613000,13.546613037109376,-0.09954173972606659,-0.04643178856819868,0.5645880492804571
1785389258425700000,13.5667001953125,-0.07147007597386837,0.5535222096584737,-0.6106671884860843
1785389258445787100,13.586787109375,-0.6907254253894091,0.9008467239454389,-0.06895184607524424
1785389258465875200,13.606875244140625,-1.6749030512332914,0.5528405110046267,-0.8896351557098329
1785389258485962200,13.626962158203124,-1.8445465011894702,0.5407224954485893,-0.4207707857046276
1785389258506050000,13.647050048828126,-1.4282862517118453,0.2172011738143861,-0.40352804754599925
1785389258526137000,13.66713720703125,-1.4733172335714102,0.020212474684417246,0.00927787849297747
1785389258546225200,13.68722509765625,-1.5600772331357002,-0.10299889444261788,-0.3062402059602551
1785389258566312200,13.707312255859375,-1.0321826550781725,-0.2558795717768371,0.025379374194610862
1785389258586399000,13.72739892578125,0.08271043191254139,-0.1770892359174788,0.1871709964055568
1785389258606487000,13.747487060546876,-0.04593757531046867,0.5010794902376831,-0.37544067476801574
1785389258626574000,13.767573974609375,-0.08813187243938446,0.26736104299500585,0.8088003084108233
1785389258646662100,13.787662109375,0.20926585077047347,0.11998203181698917,0.4608400169709697
1785389258666749200,13.807749267578124,1.2157803961068392,0.4081804033964872,0.8859897849448025
1785389258686837200,13.827837158203126,0.7700608279109,0.3633084114909172,1.0054874673109502
1785389258706924300,13.84792431640625,0.6076800624340772,0.0541765574760735,0.9943507178772241
1785389258727011300,13.86801123046875,1.2885977950364351,0.25099092295244335,1.212849018830061
1785389258747099100,13.88809912109375,1.2462895161390304,0.4926454238913953,0.15266838629040866
1785389258767186200,13.908186279296874,0.5807663365453481,0.45772374811396,0.31638416323065754
1785389258787274200,13.928274169921876,0.33017128104269505,0.4383357415549457,-0.07133114242721349
1785389258807361000,13.948361083984375,-0.2117301950573921,0.5530443630136549,-0.34435755424015224
1785389258827449000,13.968448974609375,-0.7641764460474252,0.46883521697595715,-0.7409124017726629
1785389258847536000,13.9885361328125,-0.6993395244777202,0.13817980567812918,-0.6273334419310093
1785389258867624000,14.0086240234375,-0.37543899426758287,0.22335019796341657,-1.1553962892275302
1785389258887711000,14.0287109375,-0.7573854707330465,0.5587973735824227,-0.9635722063191234
1785389258907798000,14.048798095703125,-1.2074106271684169,0.7128187453843653,-1.0450628871783614
1785389258927886300,14.06888623046875,-0.9840402631998062,0.7870872199051082,-0.3604926964830607
1785389258947973400,14.088973388671874,-1.0792501112014055,1.000449984600395,-1.07115440996401
1785389258968061200,14.109061279296874,-0.5537783763766289,1.0409937380433083,-0.6684151016429066
1785389258988148200,14.129148193359375,-0.362530997377634,1.0543332582183182,-0.10116930439528077
1785389259008236300,14.149236328125,0.015730068573355675,0.8010947024695575,-0.46754050099030137
1785389259028323000,14.169322998046875,0.4953098207950592,1.1444544047787786,0.07786284575089812
1785389259048410000,14.18941015625,0.6139613346606493,1.046160034765303,-0.0279824510987848
1785389259068498200,14.209498291015626,0.18212357682287691,1.0900319097176194,0.6296351430021226
1785389259088585200,14.229585205078125,0.5243132124394178,1.1893640983462332,0.4459055192220956
1785389259108673000,14.249673095703125,0.2148334217697382,1.0468193754568695,-0.04309760264419019
1785389259128760000,14.269760009765625,0.16035481260716913,0.6340497445739806,0.5181958255376666
1785389259148848000,14.28984814453125,0.6147866795688868,0.6671472736641765,0.1459302554081194
1785389259168935200,14.30993505859375,1.044845737296343,0.7719355357415973,0.5182011592999101
1785389259189023000,14.33002294921875,0.7794155162334442,0.9736676300063729,0.14243055845778435
1785389259209110000,14.350110107421875,0.5620142898023128,1.055641856598854,0.2363472979089245
1785389259229197000,14.370197021484374,0.21806699686348438,1.0724718492381273,-0.1311606658973731
1785389259249284900,14.390284912109376,0.08795943848192692,1.0781576397895813,-0.13855183559460565
1785389259269372000,14.410371826171875,-0.2913029134660959,1.0755467266388237,0.03342480654949322
1785389259289460000,14.4304599609375,-0.20213526823818684,0.915445742662251,0.1095618148884736
1785389259309547000,14.450547119140625,-0.3066641487270593,0.8590933024518191,0.016212226067110896
1785389259329634800,14.470634765625,-0.26754560578167436,0.9708055185735225,0.31016251223683355
1785389259349721900,14.490721923828126,-0.45693011351823803,1.1625497411787509,0.23219498226875437
1785389259369809000,14.510808837890625,-0.5456558601975441,1.0915301854513586,0.25612149077393115
1785389259389897000,14.53089697265625,-0.42758010039329525,1.0737839547500014,0.3804914918841794
1785389259409984000,14.55098388671875,-0.5217413161247968,1.1040094355352221,0.35955877663381397
1785389259430071800,14.57107177734375,-0.2605518013715744,1.0598344859831035,-0.106292054236494
1785389259450158800,14.591158935546876,-0.3726946639955044,1.2804822931200266,0.12923221858544273
1785389259470247000,14.611246826171875,-0.3602390870481729,1.1640623376987873,0.17103192690620198
1785389259490334000,14.631333984375,-0.5036790052115917,0.9720515731118619,-0.38957258742973205
1785389259510422000,14.651422119140625,-0.15600947687923908,0.8715387963965535,-0.09180277950447052
1785389259530509000,14.671509033203124,-0.12539981908202172,1.0722491463981567,-0.31439616775121537
1785389259550596000,14.69159619140625,-0.22539339422881602,1.0132885695159435,-0.2835043320117518
1785389259570684000,14.711683837890625,-0.25533085185289384,1.0010368445776403,-0.1993421669209376
1785389259590771000,14.73177099609375,-0.03625613925158977,0.8634292858295142,0.27188674025852233
1785389259610859000,14.75185888671875,0.2897650363743305,0.8341996842138468,0.3660175973843783
1785389259630946000,14.771946044921876,0.20768004288375377,1.0760710427738724,0.3032778672896325
1785389259651033900,14.792033935546876,-0.036056817287206645,1.1597270849734544,0.20598229905515908
1785389259671121000,14.812120849609375,-0.215503283855319,1.279948332373798,-0.3615438860364258
1785389259691208000,14.8322080078125,-0.4765782323181629,1.1899220244899391,-0.11643317109583877
1785389259711295700,14.852295654296874,-0.20819968284368515,1.1701581703558563,-0.018714929603040217
1785389259731382800,14.8723828125,-0.07500818697214126,0.9863276434846222,-0.016442938683601097
1785389259751471000,14.89247119140625,-0.03861234698891639,1.0895232295431196,-0.05413878274895251
1785389259771558100,14.91255810546875,0.13981471340358256,1.3761588818505406,-0.108780784045998
1785389259791646000,14.93264599609375,-0.3464186514884233,1.1932909164011478,-0.31514187155198303
1785389259811733000,14.95273291015625,-0.524018028885126,1.0711123974531889,-0.47474414875879883
1785389259831821000,14.972821044921876,-0.36783670257031914,1.0276505646064877,-0.09281133549250661
1785389259851908000,14.992908203125,-0.17375322336256502,0.8599282919712364,0.23810742118293418
1785389259871995000,15.012994873046875,0.09918693493902683,0.9059780954845249,0.1823284882778302
1785389259892083000,15.0330830078125,-0.060256023520231246,0.9280480346038937,-0.048075409323070195
1785389259912170000,15.053169921875,-0.23649463395774364,0.858183494130522,-0.04482060877820477
1785389259932257800,15.0732578125,-0.18824001387655734,0.9696868898071348,0.17423452233979478
1785389259952344800,15.0933447265625,-0.0540536617487669,0.9646040335848927,0.10343735892511903
1785389259972433000,15.113432861328125,0.2140349648684263,1.2216728151462972,0.11463504476584493
1785389259992520000,15.13352001953125,0.11558452751040459,1.1904527703657746,0.4057721001457423
1785389260012607000,15.15360693359375,0.16106325313746928,0.9732805303849279,0.1639131444095634
1785389260032695000,15.173695068359375,0.6643962213903665,1.1372606938824057,0.43243323951289053
1785389260052781800,15.19378173828125,0.27789748844802376,1.1385995412707328,0.2658530313185416
1785389260072870100,15.2138701171875,0.2889665794730186,0.9584431728675961,0.8799347957547754
1785389260092957000,15.23395703125,0.6319687005162239,1.245595250264555,0.5453212944809347
1785389260113045000,15.254044921875,0.41956338267624377,1.2789637052506209,0.6463717582695185
1785389260133132000,15.274132080078125,0.020213351467251776,1.4961498276263474,0.4397179531609639
1785389260153219000,15.294218994140625,-0.3393365842729807,1.5195591986559331,-0.12548534194100647
1785389260173306400,15.314306396484374,-0.46108664867579935,1.258413523044437,0.35964393416661766
1785389260193393400,15.334393310546876,-0.3787520643383264,0.9405522729985415,-0.5535353614009917
1785389260213481500,15.3544814453125,-0.5148913040995597,0.8403276655748486,-0.05214595583076589
1785389260233568500,15.374568603515625,-0.4208388094395399,1.1113348099872469,-0.676771426577866
1785389260253656300,15.39465625,-0.46232408151626586,1.0340649616934359,-0.5320347831347957
1785389260273743400,15.414743408203124,-0.6389554906636477,0.9770680860996246,-0.5883199667952954
1785389260293831400,15.43483154296875,-0.5221165791779756,1.1156881828911602,-0.28664202724928034
1785389260313918500,15.45491845703125,-0.7358750651925802,1.00234748878479,-0.5391827551933005
1785389260334005200,15.475005126953125,-0.5177975469350814,1.1383869214333593,-0.38625056686755266
1785389260354093300,15.49509326171875,-0.5081149418324232,1.1089810864679515,-0.5462513053400442
1785389260374180400,15.515180419921874,-0.3106833212405443,1.055332352258265,-0.10440815845234319
1785389260394268400,15.535268310546876,-0.17719371920526025,1.1509655402384698,-0.31897666394189
1785389260414355200,15.555355224609375,-0.06949848363995552,1.0405297737933694,0.03406441049412824
1785389260434442200,15.575442138671875,0.12685352502167224,0.9536099074922502,0.01421054912218824
1785389260454530600,15.595530517578124,0.4249538435429334,1.008335184892267,0.34952217046171424
1785389260474617600,15.61561767578125,0.4752741639822721,0.9397777814947068,0.5986419657800346
1785389260494705400,15.635705322265625,0.40344577609002585,0.8081677095957099,0.29182874570479617
1785389260514792400,15.65579248046875,0.4166910421103239,0.9621814826130867,0.6212498111683875
1785389260534880500,15.675880615234375,0.5004495217710733,0.785532099417597,0.21520484889801592
1785389260554967300,15.69596728515625,0.634476883944869,1.0637012444138527,0.21040214305771512
1785389260575055400,15.716055419921876,0.5122691389024258,1.0708863336123526,0.6042370823733508
1785389260595142400,15.736142333984375,0.16808453007638455,1.0170835778847336,0.47295872664675115
1785389260615229400,15.7562294921875,0.26951427550613877,1.0289723147295415,0.41233796146735546
1785389260635317200,15.776317138671875,0.08150456325411796,0.9692503980860113,0.10505536118154414
1785389260655404300,15.796404296875,0.13310440210998056,1.0972063313916325,0.23321866276068612
1785389260675492400,15.816492431640626,-0.02667348739206791,1.1079600728571415,0.2846850296963006
1785389260695579400,15.836579345703125,-0.18205577228367328,0.9511948091745376,0.39642311091162263
1785389260715667500,15.85666748046875,-0.15938684435784817,0.6128717858582735,0.12685578091084024
1785389260735754500,15.87675439453125,-0.07924480162858963,0.9530794538773596,-0.6916007469192147
1785389260755841500,15.896841552734376,-0.2681879953384399,1.2250792625889182,0.8680915054868906
1785389260775929300,15.916929443359376,-0.4105523932248354,0.9990974009476602,-0.8825243007913232
1785389260796016400,15.937016357421875,-0.4240934273213148,1.2619530953474343,0.40204288702215996
1785389260816104400,15.9571044921875,-0.556404048705101,0.9768629189163446,-0.9697868430502712
1785389260836191500,15.97719140625,-0.4647089308261871,0.9478846617132425,0.21789343039486556
1785389260856279300,15.997279296875,-0.3186532772064209,1.151254294051975,-0.23739815866872666
1785389260876366300,16.017366455078125,-0.6325999841570854,0.8567341721050441,0.036965949755068866
1785389260896454400,16.037454345703125,-0.23019290346503257,0.9582099486336112,-0.43992399712707847
1785389260916541400,16.05754150390625,-0.03599427344501018,1.1926467732787132,-0.17309859537873415
1785389260936628200,16.077628173828124,-0.36927345737516876,1.0749516833551227,-0.42495928690303114
1785389260956716300,16.09771630859375,-0.2123918738365173,1.1398894349507986,0.08497300654966383
1785389260976803300,16.11780322265625,-0.3645101884961128,1.0470622443020343,-0.27164387141335755
1785389260996891400,16.137891357421875,0.19578560695052147,1.1126040992707014,-0.15556332228062675
1785389261016978400,16.157978515625,0.35249066487848757,1.1278969454705714,-0.07366457664372865
1785389261037066500,16.17806640625,0.3056435735076666,1.1583110806956887,-0.003515369443502277
1785389261057153500,16.198153564453126,0.18404548479616642,1.140890428686887,-0.01653936652909033
1785389261077240600,16.218240478515625,0.22345336607694624,1.1026697113640607,-0.1888115301541984
1785389261097328400,16.238328369140625,0.2583680275917053,1.0627560725182295,-0.2123826493504457
1785389261117415400,16.25841552734375,0.18127660460472106,0.8623552268572151,-0.15338711075270547
1785389261137503500,16.27850341796875,0.05990472586452961,0.8583208567745984,0.04954097009729594
1785389261157590300,16.29859033203125,0.13729367049336433,0.6351517144665122,-0.3548069789968431
1785389261177678800,16.318678955078123,-0.08141396236121654,0.776814101563394,0.01690434565027244
1785389261197766000,16.338765869140627,0.10224924511909485,0.8182366836674511,-0.16113116727452725
1785389261217853000,16.35885302734375,-0.026213468664884564,0.7951581520274281,0.23686799731478095
1785389261237941000,16.37894091796875,0.023042437413334844,0.617645283870399,0.09083219003980048
1785389261258028000,16.399028076171874,0.012697569009661673,0.6106722299873828,0.008003565974533557
1785389261278116000,16.4191162109375,-0.0224953249245882,0.6336268429867923,0.2302465698810294
1785389261298203000,16.439202880859376,-0.03658113342225552,0.561204434724152,-0.21237232888583094
1785389261318291000,16.459291015625,0.07847498629987239,0.6770525816068053,-0.12915335379610768
1785389261338378000,16.4793779296875,-0.05194587581455707,0.7246341247320175,-0.12755664092288352
1785389261358465800,16.4994658203125,-0.32422669342458244,0.6956880162328481,-0.20801698322053996
1785389261378552800,16.519552734375,-0.23820260691940784,0.5872573059998453,-0.08100286080967635
1785389261398639900,16.539639892578126,-0.109776133492589,0.5231093896076083,-0.30674178054053336
1785389261418728000,16.55972802734375,-0.05696925693452358,0.2597038062401116,-0.1433690174848307
1785389261438815000,16.57981494140625,-0.14362287351489067,0.469497480276972,0.07458473739568143
1785389261458902800,16.59990283203125,-0.12949790205061434,0.5277252128399909,-0.0629665063216351
1785389261478989800,16.61998974609375,-0.3282826908171177,0.5398765461437404,-0.05306139930840581
1785389261499078100,16.640078125,-0.6118330904603004,0.3430615961454809,-0.1636198422851041
1785389261519165000,16.6601650390625,-0.0601402881860733,0.16268208651095628,-0.2279092129746452
1785389261539253000,16.6802529296875,0.2402735679745674,0.11141454834938049,-0.08458519454216584
1785389261559340000,16.700340087890623,0.029654549029469488,0.02359057281538844,-0.01501457724776119
1785389261579427000,16.720427001953126,-0.08173077322542667,0.008503039929270744,-0.12169250726299359
1785389261599515000,16.740514892578126,0.020184709894657135,0.11671163184419274,-0.11665940846661105
1785389261619602000,16.760601806640626,-0.04838029228746891,0.11443068130016326,-0.0691844127221033
1785389261639690000,16.78068994140625,-0.20373393560647962,0.16474150325879452,-0.06151497407276183
1785389261659777000,16.800777099609373,-0.032090836265683174,0.0907495075918734,-0.13656365745207294
1785389261679864800,16.82086474609375,-0.08430150049626826,0.004224047435820102,-0.11151682141376659
1785389261699951900,16.840951904296876,0.04891746790409088,-0.07397431387975811,-0.20680912353442982
1785389261720040000,16.8610400390625,0.07652092962265014,-0.1619476347565651,-0.21122467495435848
1785389261740127000,16.881126953125,0.16141864244639872,0.009892302330583334,-0.13187944515859706
1785389261760213800,16.9012138671875,-0.04352876060307025,-0.024485037437081334,-0.22928546976391226
1785389261780302000,16.921302001953126,-0.13126958789825438,-0.05421192105039954,-0.2659372755358927
1785389261800389000,16.94138916015625,-0.14559212776124478,-0.1430425894089043,-0.31653380083441734
1785389261820477000,16.961476806640626,0.09238602275252342,-0.3726942256040871,0.005930431228596717
1785389261840564000,16.98156396484375,0.004048398607969284,-0.45262774014919993,0.0320292605378665
1785389261860652000,17.001652099609377,-0.03068330755531788,-0.5341714663699269,-0.09506077665342018
1785389261880739000,17.021739013671876,-0.21328268519639967,-0.6677088530696929,0.09812317816503345
1785389261900827000,17.041826904296876,-0.12542086187005042,-0.7250242930933832,0.16602202632231636
1785389261920914000,17.061913818359375,0.20645079334974287,-0.7766521889999508,-0.028341913794632998
1785389261941001000,17.0820009765625,0.11186813733577727,-0.8878700457334517,-0.024026571346167473
1785389261961088800,17.1020888671875,0.1791881078928709,-0.7080855793826282,0.059582014982495456
1785389261981175800,17.12217578125,0.002592354580760002,-0.5789879286959767,0.1466576381009072
1785389262001263900,17.142263916015626,-0.19595920995175836,-0.7364421975560486,-0.17797915222821756
1785389262021351000,17.162350830078125,-0.10105039072334766,-0.8334794071152806,-0.08656820331923663
1785389262041439000,17.18243896484375,0.0017161562681198119,-0.6907815394908189,0.2015779996816069
1785389262061525800,17.20252587890625,-0.22154431758522986,-0.7295623749144375,0.0028404110576957463
1785389262081614000,17.222614013671876,-0.31545243533849715,-0.812978470878303,-0.08155892378985881
1785389262101701000,17.242701171875,-0.00400631303191185,-0.7186085808321833,0.36791298267692324
1785389262121788000,17.262787841796875,0.06730243490040302,-0.629358371887356,-0.14274313153829424
1785389262141876000,17.2828759765625,-0.0038823943912982936,-0.5959739886797965,0.07823714068969712
1785389262161963000,17.302962890625,0.08826689699590205,-0.7004330188028514,0.05228098952043801
1785389262182050800,17.32305078125,0.17485504712462424,-0.6323696825325489,-0.14425760948816313
1785389262202137900,17.343137939453126,0.1542740313887596,-0.7510698578454553,-0.043223895904980596
1785389262222226000,17.363225830078125,0.32075463339984417,-0.847813052894175,-0.01813937647109851
1785389262242313000,17.38331298828125,0.3542313710659742,-0.7118976850166916,-0.07773642462594434
1785389262262401000,17.403401123046876,0.23411972151994703,-0.7846917030707001,-0.12593231852352618
1785389262282488000,17.423488037109376,0.17699673532843588,-0.8721610199481248,0.19644385166354475
1785389262302576000,17.443576171875,0.228992880025506,-0.7311834002450108,0.00799764769040048
1785389262322663200,17.4636630859375,0.06796411367952823,-0.6499716824576258,-0.027125724671594797
1785389262342750000,17.48375,-0.04563596201539039,-1.1983778642766176,0.17837233453057705
1785389262362838000,17.503838134765626,-0.3292179258406162,-1.2380660238035022,-0.20699122036937623
1785389262382925000,17.523925048828126,-0.3298030322521925,-1.2007333413615822,0.19585549384895712
1785389262403012900,17.544012939453125,-0.103349315315485,-1.2413923917472363,-0.12073274058643728
1785389262423100000,17.564099853515625,-0.09872048647105693,-1.2278650939151643,0.4384702911874279
1785389262443188000,17.58418798828125,-0.20039806918203829,-1.2598891485549508,0.23230299095418303
1785389262463275000,17.60427490234375,-0.1239320846170187,-1.1645638574801385,0.6236255273237824
1785389262483362800,17.62436279296875,-0.3372925112247467,-1.1714663303449748,0.43537722054291517
1785389262503449900,17.644449951171875,-0.07053776355981826,-1.0493281434074044,0.7423570476230233
1785389262523537000,17.664536865234375,-0.20956395693421362,-1.033170204810798,1.1018664321571587
1785389262543625200,17.684625244140626,-0.35444822868704795,-1.2343505104117094,1.122468782941997
1785389262563712000,17.7047119140625,-0.05302607226669788,-1.1325212442703545,0.9428430142842232
1785389262583800000,17.724800048828126,-0.34062194790840145,-1.2361416316121816,1.1601124310292303
1785389262603887000,17.74488720703125,-0.27537235388457776,-1.4489232354186474,1.3278117611803113
1785389262623975000,17.764974853515625,-0.10258125355243682,-1.440123258369416,1.2579073270879686
1785389262644062000,17.78506201171875,0.10183540362119674,-1.5283672128811479,0.863229233212769
1785389262664150000,17.80514990234375,0.017778817796707154,-1.4728665671944616,1.1003601923126727
1785389262684237000,17.825237060546876,-0.11261807892024517,-1.4280629643499851,0.5664067160749807
1785389262704324000,17.845323974609375,-0.38516602303385733,-1.2664704266414046,1.0452215848714113
1785389262724412000,17.865411865234375,-0.23640812471807002,-1.3566368736483156,0.9666947222538291
1785389262744499000,17.8854990234375,-0.20589608207643031,-1.3440649768449364,0.8384277502376586
1785389262764587000,17.9055869140625,0.09989888260066508,-1.2504082035042345,0.7153177225932479
1785389262784674000,17.925674072265625,-0.02304652906656265,-1.0756294364862142,0.357790926711075
1785389262804762000,17.94576220703125,-0.3331137642353773,-1.176212355828285,0.4033197385575622
1785389262824849200,17.96584912109375,-0.2669166602283716,-1.3297542735502124,0.4789626067040488
1785389262844937000,17.98593701171875,-0.15726678346395492,-1.2286379779838026,0.21197156606521456
1785389262865024000,18.00602392578125,-0.052152212041616436,-1.3824692340411244,0.205131089053303
1785389262885111000,18.026111083984375,-0.2211246308684349,-1.4457389062941073,0.16061996634937822
1785389262905199000,18.04619921875,-0.029639351460337637,-1.6198311523526907,0.05404105799552053
1785389262925286100,18.0662861328125,-0.12057575992643832,-1.4473688455834983,-0.21693474143054334
1785389262945374000,18.0863740234375,-0.26260347320437427,-1.561370926208049,-0.1912473059337586
1785389262965461000,18.1064609375,-0.33460604861974713,-1.8296815250128506,-0.19138207476194946
1785389262985549000,18.126549072265625,-0.31982582811713217,-1.4757599505484102,-0.08348777296058833
1785389263005636000,18.146635986328125,-0.593745060583949,-1.6736163724236188,-0.014010880097933113
1785389263025724000,18.166723876953125,-0.651215252777934,-1.654942797744274,0.3680951343107968
1785389263045811000,18.18681103515625,-0.29287761543691154,-1.5387465680763124,0.12581453736275433
1785389263065898000,18.20689794921875,-0.45208618061840533,-1.4065097425810993,0.772503764083609
1785389263085986000,18.226986083984375,-0.4941676650226116,-1.4573311444103716,0.3084188834398985
1785389263106072800,18.24707275390625,-0.6907651728779077,-1.3353449331641196,0.6724716835573316
1785389263126161200,18.2671611328125,-0.13342179749608038,-1.3479986630320548,0.6321080359216779
1785389263146248200,18.287248291015626,-0.2244873852998018,-1.1423757718738168,0.24204627673551438
1785389263166336000,18.3073359375,-0.37365444893836974,-0.983605963435769,1.4329580429151654
1785389263186422500,18.327422607421877,-0.41672786698937414,-0.8544499336253851,0.3587841389995068
1785389263206510600,18.347510498046876,-0.9693711018562317,-1.0871459059525281,1.666397673216462
1785389263226597600,18.36759765625,-0.8012742968201637,-1.1412936026602982,0.6786053640067577
1785389263246684700,18.3876845703125,-0.6512327884346246,-1.3080476147852838,1.4286311196267605
1785389263266772500,18.4077724609375,-0.7474731485277414,-1.4582910754837095,0.4909652157194912
1785389263286859500,18.427859619140627,-0.8759089743047952,-1.6148822977736592,1.9408584652140735
1785389263306947600,18.447947509765626,-0.3174281193256378,-1.6257772012755274,0.13774678455572575
1785389263327034400,18.468034423828126,-0.1536415787041187,-1.2762392487227916,0.9626067222878336
1785389263347122400,18.488122314453125,-0.35390403880774973,-1.5788253343559802,0.09097319681253284
1785389263367209500,18.50820947265625,-0.26542963654100893,-1.4657608268424869,-0.615192630021274
1785389263387296500,18.528296630859376,0.11202362015843391,-1.2717279087781905,-0.10830551295075565
1785389263407384600,18.548384521484376,-0.10485387465953826,-1.0970665575947611,-0.8514424954377114
1785389263427471600,18.5684716796875,-0.0703489629894495,-1.2472121839419006,-0.04620192533507943
1785389263447559700,18.5885595703125,-0.1989770964682102,-1.3031079664260148,-0.5985104483548551
1785389263467646700,18.608646728515627,0.07409633282423018,-1.1494273708857594,-0.07883486912082881
1785389263487734500,18.628734619140626,-0.0996931308954954,-1.122933916235715,-0.3945920960921794
1785389263507821600,18.648821533203126,-0.3017652707695961,-1.2660203447863458,0.14733466057963668
1785389263527909600,18.66890966796875,0.021495792493224142,-1.30786334425956,-0.2523056588128209
1785389263547996400,18.688996337890625,-0.019181670331954954,-1.23384124571532,-0.45303767265696077
1785389263568083500,18.70908349609375,-0.21469430555999278,-1.3925535518124699,-0.3385886519825086
1785389263588171500,18.729171630859376,-0.42000235861539836,-1.5971660238191485,-0.34920788034815337
1785389263608258600,18.749258544921876,-0.5316916322529316,-1.7924714460372924,0.09170713711027055
1785389263628346400,18.769346435546876,0.005384031125903129,-1.3758265811562538,0.0069571987267583605
1785389263648433400,18.789433349609375,-0.0932101986169815,-1.0485923034135252,-0.04129749441966414
1785389263668521500,18.809521484375,-0.8199713985055684,-1.2272066300064324,0.13874365010596812
1785389263688608500,18.8296083984375,-0.6548498098880052,-1.2040897391173988,0.3083129388473928
1785389263708696600,18.849696533203126,-0.40583822418451304,-1.1387717560324817,0.24201778129339216
1785389263728783600,18.86978369140625,-0.3953191682577133,-1.1286340275734663,0.6857483676292002
1785389263748870700,18.88987060546875,-0.2508820557504892,-0.9028579176373779,0.11716390565633773
1785389263768958500,18.90995849609375,-0.22399112621545791,-1.3044623036444187,0.6093091614732519
1785389263789045500,18.93004541015625,0.042031800043582916,-1.4126964683920145,0.07888502840548753
1785389263809133600,18.950133544921876,0.13291326345205307,-1.1747453520156443,0.36255536463391036
1785389263829220600,18.970220703125,-0.18689152187705038,-1.096368127001822,0.41099421870820224
1785389263849308400,18.990308349609375,-0.36211131066083907,-1.0816431438177823,0.21927345004379747
1785389263869395500,19.0103955078125,-0.6774766522377729,-1.1177484033565968,0.38664829748086627
1785389263889482500,19.030482421875,-0.4181196136087179,-1.2613866936363278,0.17308752599544822
1785389263909570600,19.050570556640626,-0.2676455590248108,-1.2209892898615449,0.27667934482991696
1785389263929657300,19.0706572265625,0.04029109385609626,-1.3599180872760712,-0.19095201278161256
1785389263949745400,19.090745361328125,0.17026421220302582,-1.297740301913023,-0.2711961276458576
1785389263969832400,19.11083251953125,0.3057067018717527,-1.0633043540507554,-0.12908669090121982
1785389263989920500,19.13092041015625,-0.02530044547319412,-1.2102585639454424,-0.44858365239016706
1785389264010007600,19.151007568359375,-0.2489215693324804,-1.4098951472356915,0.0688765888819471
1785389264030095600,19.171095703125,0.07099778228700161,-1.1905599570672958,-0.48875776880308985
1785389264050182700,19.1911826171875,-0.030406828701496122,-0.9579976941224188,-0.3602782134821638
1785389264070269700,19.211269775390626,-0.2698182268887758,-0.9634062751676886,-0.6752458975110203
1785389264090357500,19.231357421875,-0.36592356242537494,-1.0758596650455146,-0.10127185145430266
1785389264110444500,19.251444580078125,-0.28229075497090816,-0.9220059048954397,-0.5111382351763546
1785389264130532600,19.27153271484375,-0.5012117383152246,-0.7973951903644949,0.07636760222446173
1785389264150619400,19.291619384765625,-0.7005500693112612,-1.1208296374328435,-0.30584410104844717
1785389264170707500,19.31170751953125,-0.23765374086499214,-1.1381585925702005,0.06664218089338392
1785389264190794200,19.331794189453124,0.12156886261701583,-0.9940445745375007,0.00032276568096131086
1785389264210881300,19.35188134765625,-0.4650713343977928,-0.9100401572916657,-0.1676786526892334
1785389264230969000,19.371968994140627,-0.6941109761744737,-0.8270958435580134,0.2611085584715009
1785389264251056000,19.39205615234375,-0.8182868064194917,-1.1588155230864883,-0.74210913727656
1785389264271144200,19.412144287109374,-0.6704366705983876,-1.351566292385757,0.019636684090457854
1785389264291231200,19.432231201171874,-0.22603578378558156,-1.3059841063842177,-0.3136717624668032
1785389264311319000,19.452319091796873,-0.22038228806853294,-1.518902049921453,-0.2428186858801171
1785389264331406000,19.472406005859376,0.517902760875225,-1.4506252170309424,0.07600096086915582
1785389264351494100,19.492494140625,0.8461585636854171,-0.8517141519859432,0.29855770689994093
1785389264371581200,19.512581298828124,0.15503800149857996,-0.5211101055491716,-0.16197086950168013
1785389264391668000,19.53266796875,-0.5285094950854778,-0.5504918289866298,0.05393599018584937
1785389264411756300,19.55275634765625,-0.6482675088882446,-0.9797209386959671,0.008115319253318012
1785389264431843300,19.57284326171875,-0.3078933982610702,-1.5890426308572292,0.02510729752127081
1785389264451931100,19.59293115234375,0.5711433526754379,-1.1713734644297509,0.25307638745699074
1785389264472018200,19.61301806640625,0.3756470840603113,-0.6940031318858265,-0.3850780890220776
1785389264492106200,19.633106201171874,-0.7373305246978997,-0.7808302784021943,-0.41174251632485537
1785389264512193300,19.653193359375,-0.7700432922542094,-0.6856663153689354,-0.18718648623563347
1785389264532280300,19.6732802734375,-0.6729939538657664,-0.6440986987709999,0.0004246551528573036
1785389264552368000,19.6933681640625,-0.648876580697298,-0.7384940155193209,-0.32113175961654633
1785389264572455200,19.713455078125,-0.48837914474904537,-0.5996488047350198,-0.20077420901805162
1785389264592543200,19.733543212890623,-0.3613724749922752,-0.27300153310000896,-0.17911011075321584
1785389264612630000,19.753630126953126,-0.6074146894961595,-0.31764431935958565,-0.6384545554041862
1785389264632718000,19.773718017578126,-0.6397241369485854,-0.5365279663681983,-0.35758554033208634
1785389264652805000,19.79380517578125,-0.0713596013367176,-0.707675537277013,-0.4906357645694166
1785389264672893200,19.81389306640625,0.14497428812384605,-0.5332506982631982,-0.265338158865273
1785389264692980200,19.833980224609373,0.2965928365677595,-0.3181931854140013,-0.10457279269583522
1785389264713067300,19.8540673828125,0.3345195393800735,-0.3818725344464183,-0.07766092997062951
1785389264733155300,19.8741552734375,0.18289339215159414,-0.28191271543875335,-0.20202468400318174
1785389264753242400,19.894242431640624,-0.07575228333771228,-0.06158646840639412,-0.05982808043174445
1785389264773330200,19.914330078125,-0.13508417775034903,0.12507694380320608,0.0663612085275352
1785389264793417200,19.934417236328127,-0.0834592044532299,-0.17231150012165308,0.24199016263410447
1785389264813505300,19.95450537109375,0.09205810597240924,-0.3989330479059368,-0.09121120681948959
1785389264833592000,19.974592041015626,0.835610281664133,-0.043963644888997074,0.23858311240328475
1785389264853679000,19.99467919921875,0.07147884380221367,0.28036877393238246,-0.4166976910468191
1785389264873767200,20.01476708984375,-0.5109644860446453,-0.16891009418033062,0.011584073076117783
1785389264893854200,20.034854248046877,-0.5657324335426092,-0.13599486285448073,-0.1092694808783941
1785389264913942000,20.05494189453125,-0.5138701443582773,-0.13944127698130904,-0.38726160707361995
1785389264934029000,20.075029052734376,-0.4386684806406498,-0.12079919341877102,0.23490855207638814
1785389264954117400,20.095117431640624,-0.26043431247174736,-0.19852124245949088,-0.44785040621217337
1785389264974204400,20.115204345703123,-0.5192319636523723,-0.39222251741662617,-0.2662488074367866
1785389264994291200,20.135291259765626,0.13984569306373595,-0.20913499093241988,-0.055791664522513745
1785389265014379300,20.155379150390626,0.3006833207517862,0.10188611089512706,-0.38857670826017854
1785389265034466300,20.17546630859375,-0.2006990979552269,0.007848521543294192,-0.05682056917883455
1785389265054554000,20.19555419921875,-0.1779717178404331,0.11865487486645579,-0.2918458612363785
1785389265074641200,20.21564111328125,-0.029759762969613072,-0.07383147134296596,-0.1703244362239726
1785389265094729200,20.235729248046876,0.06334580622911452,-0.2779752298593521,-0.388157167673856
1785389265114816300,20.255816162109376,-0.027064532536268233,0.004654620872810483,-0.15681129478141664
1785389265134904000,20.275904052734376,-0.24364216762483118,-0.030354879318550226,-0.16006441482584924
1785389265154991000,20.2959912109375,0.07049567798376083,0.1892288787834346,-0.13314255129643715
1785389265175078100,20.316078125,-0.20018997938930988,0.19764387510307133,-0.3607303776964545
1785389265195166500,20.33616650390625,-0.29205402409434317,-0.19671485062465072,-0.07512798656006343
1785389265215253500,20.35625341796875,0.1522866569638252,-0.29531054167225956,-0.21988347170092165
1785389265235341600,20.376341552734374,0.5836994673877954,-0.27825521584451196,-0.096899107129639
1785389265255428600,20.3964287109375,0.6139046360373497,0.23806078729592262,-0.28217151250541206
1785389265275516700,20.4165166015625,-0.2392535772770643,0.3655866586212069,-0.32507523654531684
1785389265295603700,20.436603759765624,-0.8180091585218906,0.24119616271220146,-0.37141934683006256
1785389265315690800,20.456690673828124,-0.5646329478681087,0.05232493826001882,-0.22106236102087423
1785389265335778800,20.47677880859375,-0.1038806457132101,-0.04234123131893575,-0.13370054137222467
1785389265355865600,20.496865478515623,-0.15812953777313232,-0.04432838654816151,-0.29925803718902166
1785389265375953700,20.51695361328125,0.1435042155712843,-0.05637246008515358,-0.06288019801136106
1785389265396040700,20.537040771484374,-0.036056817287206645,-0.1976848647005856,-0.21833121902393177
1785389265416128500,20.55712841796875,-0.16528350118100643,-0.20536475167870522,0.20441464787963776
1785389265436215600,20.577215576171874,-0.11532499979138373,-0.11822568966895342,0.015531248932471499
1785389265456302600,20.597302490234377,-0.19219196637272834,-0.364068728338927,0.4074153373081237
1785389265476390700,20.617390625,0.3192150027424097,-0.4435918354522437,-0.39869375925734635
1785389265496477700,20.637477783203124,1.2323498381137847,-0.15348565749004484,-0.4256605305075645
1785389265516565500,20.6575654296875,0.46141281189024447,-0.21674495447948575,-0.3130596219178289
1785389265536652500,20.677652587890623,0.37455461264848705,-0.20250519752912222,0.07969096536035648
1785389265556740900,20.697740966796875,0.06126198569238186,0.16179441695623098,0.031111113646486773
1785389265576827600,20.71782763671875,-0.43985506007671354,0.06816686971001326,-0.1561622197555378
1785389265596915700,20.737915771484374,-0.708312520006299,0.03654745034836233,0.12229501233394258
1785389265617002800,20.758002685546874,-0.489621838286519,0.08624065186530351,0.2828995527853258
1785389265637089800,20.77808984375,-0.6535042404979468,-0.31037856614030895,0.2546461940569803
1785389265657177600,20.798177490234377,-1.106541438230872,-0.3318501009751111,0.24196816999800502
1785389265677264600,20.8182646484375,-0.260520821711421,0.04609568848162889,0.3394867333333939
1785389265697352700,20.838352783203124,-0.4945160400688648,0.2395201192587614,0.2825734078371897
1785389265717439700,20.858439697265624,-0.34012101264894007,0.16225881959758698,0.03118401448591612
1785389265737527600,20.878527587890623,-0.026278350594639777,-0.04123801931738853,0.24512323649544268
1785389265757614600,20.898614501953126,0.011229250022768974,-0.017070815657824277,0.7375459210142493
1785389265777701600,20.91870166015625,-0.07082417928576469,-0.1938725398708135,0.10848125311015173
1785389265797789700,20.938789794921874,0.28238603203892704,-0.3307712196972221,0.7944751381993294
1785389265817876500,20.95887646484375,0.9135779029637575,-0.04228519028276205,-0.3978321009267121
1785389265837964500,20.978964599609377,0.6801087543070315,-0.05069507203586399,-0.032145411430555396
1785389265858051600,20.999051513671876,0.8575088097393512,-0.30024631757400927,0.011639771618996746
1785389265878139600,21.0191396484375,1.1165893695145845,-0.07780022884346545,-0.09614385004923678
1785389265898226700,21.039226806640624,0.8751847516834735,-0.34455563409551976,0.22921793921934439
1785389265918313700,21.059313720703123,0.5647141964107751,0.002578691381588578,-0.21610261972164735
1785389265938401800,21.07940185546875,-0.19141162964999675,0.14778817650079726,0.5892018641963601
1785389265958488600,21.099488525390626,0.7173246785014867,0.6889906374860555,0.1912739199460484
1785389265978576600,21.11957666015625,-0.2500380061417818,0.7338004508756101,-0.11554809535699896
1785389265998663700,21.13966357421875,-1.2311603360682726,0.3473080015435815,-0.062484467558888715
1785389266018751700,21.159751708984373,-0.6546545795768499,0.4112196980271488,1.1751484529238194
1785389266038838500,21.179838623046876,-0.06892272957861423,0.3391317824158817,-0.855205062841624
1785389266058925600,21.199925537109376,-0.3741553841978311,0.5632110983714461,0.7692379672206938
1785389266079013600,21.220013671875,-0.5127221433669329,0.5319148465495557,-0.663740680091083
1785389266099100700,21.2401005859375,-0.5409808541238308,0.6896515856128186,0.7238946314763277
1785389266119188500,21.2601884765625,-0.4339262545496225,0.39693142575994134,-0.3284964431656524
1785389266139275500,21.280275634765626,0.26862229510247704,0.3521087528888136,0.44808929300196465
1785389266159363800,21.30036376953125,0.36766719122231006,0.5592300659112632,0.14366923340726642
1785389266179450000,21.3204501953125,-0.09941723656356334,0.315385507582128,0.010869828426116146
1785389266199537200,21.340537109375,0.29922727672457694,0.2684409471862018,0.2229879039896652
1785389266219625200,21.360625244140625,0.6973229239583015,0.7283113519400358,-0.1056589348315727
1785389266239712300,21.380712158203124,0.09043021250963211,0.4789066022004932,-0.15678290893714875
1785389266259800300,21.40080029296875,0.1615671110063791,0.34175190178640186,-0.16317407127898184
1785389266279887000,21.42088720703125,0.7220417701512575,0.49004335163421925,-0.20308676027674227
1785389266299975200,21.44097509765625,0.32620822263062,0.6855340672913939,-0.22980814193114638
1785389266320062200,21.461062255859375,-0.1538128436177969,0.6578288256987929,-0.1894711265740916
1785389266340150000,21.48114990234375,-0.2836445076674223,0.6206270030949265,-0.1271618237858638
1785389266360237000,21.501237060546874,-0.20787235058546066,0.5899049709644169,-0.07604928438975475
1785389266380324000,21.521323974609373,-0.03865677065253258,0.617139307109639,-0.10861684392224996
1785389266400412200,21.541412109375,-0.20034955386519432,0.8917771361745893,0.0730829773634905
1785389266420499200,21.561499267578125,-0.3598170622438192,0.5708101021330804,0.04827783199341502
1785389266440587000,21.5815869140625,-0.5109755919605493,0.4267527827236801,-0.1948211092999205
1785389266460674000,21.601674072265624,-0.4156102611362934,0.5513293027240783,0.5825474843410775
1785389266480762400,21.621762451171875,-0.2267448088377714,0.4701710686895996,0.14083127916813828
1785389266500849200,21.64184912109375,-0.029212065958976744,0.47826099777333436,0.3350682227713987
1785389266520936200,21.661936279296874,0.05216565604507923,0.5382681610990315,0.4019114061295986
1785389266541024300,21.682024169921874,0.4524526758432388,0.5627777484554797,0.4076605077082291
1785389266561111300,21.702111328125,0.39920273169279097,0.8294557045571506,0.26796291787829246
1785389266581199000,21.72219921875,-0.2227273898899555,0.36356267851293084,0.42901440751273184
1785389266601286100,21.7422861328125,0.0588549245506525,0.07088160856142639,0.5575239926457405
1785389266621374200,21.762374267578124,0.68688160944283,0.13782229747734964,0.3210828059082851
1785389266641461200,21.782461181640624,0.5837123268693685,0.1440989665940404,0.4793318784078583
1785389266661548000,21.802548095703123,0.557743188354373,0.43592729217372833,0.5147140478365123
1785389266681636000,21.822635986328127,0.3584235620588064,0.7022060928899795,0.23484874818054957
1785389266701723100,21.84272314453125,-0.1856312926828861,0.3927503406830132,0.07168641757171135
1785389266721811000,21.86281103515625,-0.2749287017703056,0.11997991292513906,0.7299727823462336
1785389266741898000,21.88289794921875,0.165232063254714,0.35732634140662844,0.15093943447279742
1785389266761986300,21.902986328125,0.5271037199407815,0.4016348542105406,0.3985798870867118
1785389266782073300,21.9230732421875,0.3064285864055157,0.46572461067475374,0.6643553048580885
1785389266802160400,21.943160400390624,0.15424538981616495,0.529932586691156,-0.03794912927325349
1785389266822248200,21.963248291015624,-0.05618892021179199,0.7063118477083742,0.48620614809151735
1785389266842335200,21.983335205078124,-0.07381810040473938,0.5439177112933248,-0.22607538514360784
1785389266862423300,22.00342333984375,-0.3621855449408293,0.43391492943800986,0.4738379936993122
1785389266882510000,22.023510009765626,-0.10884382107853889,0.34461678969822823,-0.16457593743354082
1785389266902598100,22.04359814453125,0.4249596887618303,0.21976357164829968,0.38011005481854077
1785389266922685200,22.063685302734374,0.5467173519492149,0.3905092106927186,0.4623448685759678
1785389266942773000,22.08377294921875,0.8036001094192265,0.6071115418311208,0.1785481660215184
1785389266962860000,22.103860107421873,0.23613456847369668,0.7721695636931807,0.17983230581423268
1785389266982947000,22.123947021484376,-0.018946692532300947,0.7233681964494287,0.39891131099816407
1785389267003035100,22.14403515625,-0.1559159533768892,0.5215207321766764,0.259657848206535
1785389267023122200,22.1641220703125,0.2100695683687925,0.5159065455567091,0.07332164039099588
1785389267043210000,22.1842099609375,0.420001189571619,0.3725748370081186,0.5687185732139274
1785389267063297000,22.204297119140627,0.5947217966616153,0.3753796652957797,-0.10260036924486048
1785389267083385300,22.22438525390625,0.417809817007184,0.5686116422407329,0.41143830921389163
1785389267103472000,22.24447216796875,0.05898878006339073,0.4309894704453647,-0.07386929630243684
1785389267123559200,22.26455908203125,0.2300339135110378,0.32920411651097237,0.3645455155378207
1785389267143647200,22.284647216796873,0.23409458707869052,0.29685441011339425,0.26784265249948946
1785389267163734300,22.304734375,0.3128653414547443,0.3976112247176468,0.27779448473127555
1785389267183822300,22.324822265625,0.5010679459303617,0.5079935074098408,0.46979255423340943
1785389267203909400,22.344909423828124,0.22723405365943908,0.47560792598128315,-0.01348474189855624
1785389267223997400,22.36499755859375,-0.13494856867194174,0.25925956960394975,0.7477407134227454
1785389267244084500,22.38508447265625,-0.04660860643982887,0.13844430183321238,0.2830161831686273
1785389267264171300,22.405171142578126,0.40518998940885065,-0.006241524738073349,0.5542756949068978
1785389267284259300,22.42525927734375,0.2358247718721628,0.040213936966657635,0.7430467103876173
1785389267304346400,22.445346435546874,0.2484825933933258,-0.21529051788747308,0.1251291854470968
1785389267324434200,22.46543408203125,0.43897769272029397,-0.19870047148391604,0.6758543117329477
1785389267344521200,22.485521240234377,0.698383246666193,0.3085530312135815,0.05626993129244074
1785389267364609500,22.505609619140625,0.2599859841823578,0.4447574451655149,0.25517244642078873
1785389267384696600,22.525696533203124,0.36347967640459533,-0.38638409358672793,-0.8449206193882971
1785389267404783400,22.545783447265624,-0.2006815622985363,0.21248196327276528,-0.009332832683762535
1785389267424871400,22.565871337890623,0.7817500966608524,1.1588969908248632,1.3079706040263175
1785389267444958500,22.58595849609375,-0.4531856662929058,0.7093388673793524,-0.03378870795844122
1785389267465046500,22.606046630859375,-0.5130822088509798,0.11832644662968814,0.16943064745571462
1785389267485133300,22.62613330078125,-0.005229132825136184,0.22402254426702856,0.2791198881161399
1785389267505221400,22.646221435546874,0.22519582583010195,0.639225247515738,0.9227658564172685
1785389267525308400,22.666308349609373,0.23803134200572967,0.8049949978437274,0.7029547923654318
1785389267545395500,22.6863955078125,0.22161095308065412,0.5804651616416872,0.664399509325996
1785389267565483300,22.706483154296876,-0.13935878632962703,0.669328782421723,0.7096545822650194
1785389267585570300,22.7265703125,-0.027266192588210104,0.44315220192596316,0.6582163637116552
1785389267605658400,22.746658447265624,0.23139468047022818,0.6520986114837228,-0.3474578218104318
1785389267625745400,22.766745361328127,0.5917500873744488,0.7170465191472322,0.764413396608457
1785389267645833500,22.78683349609375,0.4151958351165056,0.9994012061998248,-0.32008758432585743
1785389267665920500,22.80692041015625,0.12793664408326147,0.8396871757142246,-0.17951123890001325
1785389267686007600,22.827007568359374,0.14167057040333747,0.4391581638537347,0.3241094967857003
1785389267706095400,22.847095458984374,0.5809428621560335,0.5542481858454644,0.07778391702948137
1785389267726182400,22.867182373046877,1.1009557470530271,1.1011639099109918,-0.4146780583200976
1785389267746270500,22.8872705078125,0.5011462718635797,0.8345696865700185,0.34200989513546226
1785389267766357500,22.907357421875,-0.8854635691136121,-0.955505950371921,0.3030379941191524
1785389267786445300,22.9274453125,0.5825041201233864,-0.6344305605851114,0.5088223594494163
1785389267806532400,22.947532470703123,1.566853010880947,2.3640528978690503,0.0969343519729562
1785389267826620400,22.967620361328127,-0.09686053781807422,0.7849019117552787,1.0555253175470978
1785389267846707500,22.98770751953125,-1.761108339524269,0.01990918088890612,-0.8754675141476094
1785389267866794200,23.007794189453126,-0.5797217959284782,-0.19331278709620237,2.659981425309181
1785389267886882300,23.02788232421875,0.8783119437932968,0.08000767575986682,-1.8063637777894734
1785389267906969300,23.04796923828125,1.15816874961555,1.130425733295828,2.326685728635639
1785389267927057400,23.068057373046877,-0.34615620115995405,0.7210130116254091,-0.7771887800946832
1785389267947144400,23.08814453125,-0.4175479512006044,-0.18425182102322576,0.9302619843263179
1785389267967232500,23.108232421875,0.9338567208826541,0.4065842202462256,0.1916185138663277
1785389267987319600,23.128319580078124,0.8141010451674461,1.1169622944802045,-0.6340807972993702
1785389268007406600,23.148406494140627,0.0849409674435854,1.4836660474978387,0.7963158706951886
1785389268027494400,23.168494384765626,-0.7934031250536442,1.1736496657334268,-0.6464451157666743
1785389268047581400,23.18858154296875,-0.3556184415102005,-0.021250293299555776,0.9677788642287254
1785389268067669500,23.20866943359375,1.0300397978305815,0.32186580951213833,0.4584680636752397
1785389268087756300,23.22875634765625,1.5567863748967647,0.9800083773352205,0.4075255196843296
1785389268107844400,23.24884423828125,0.6945493675917387,0.9944888842388987,0.2975548865329474
1785389268127931400,23.268931396484376,0.19441431859731673,1.0849407240584492,0.21278885553115978
1785389268148018400,23.289018310546876,0.39762218450307846,1.4181550260588527,0.43165830961763857
1785389268168106200,23.309106201171875,0.4166127161771059,1.3724565202012657,0.15115577150406315
1785389268188194300,23.3291943359375,0.3100771720409393,1.549634603445977,0.5770724139308556
1785389268208282000,23.3492822265625,0.608213730919361,1.5811856337465344,0.1375249950312078
1785389268228369200,23.369369140625,0.7100847903758287,1.4542797940157353,0.5027937833422794
1785389268248457200,23.389457275390626,0.8038923703640699,1.4799647087618708,0.442476348491013
1785389268268544300,23.409544189453126,0.6938713221997023,1.6019896445833146,0.7367226949978619
1785389268288631300,23.42963134765625,0.40153497403264043,1.4552328569568693,0.25699454728141424
1785389268308719000,23.449718994140625,0.5811977136999368,1.5411851934000849,0.9336633902676403
1785389268328806100,23.46980615234375,0.6817910083055496,1.7858220711506902,0.6112293158808723
1785389268348894500,23.48989453125,0.5647539438992738,1.711050615543872,0.822293996234238
1785389268368981200,23.509981201171875,0.4656476729810238,1.7764402025602757,0.6937386357307433
1785389268389069300,23.5300693359375,0.410747039014101,1.88884098546803,0.42124293326102197
1785389268409156400,23.55015625,0.06435001483559608,2.062492355891317,0.09441836883034556
1785389268429243400,23.570243408203126,0.022853052321076393,1.72736856700778,0.15418310170229524
1785389268449331200,23.590331298828126,0.4800830255687237,1.7093641237616537,0.28732359803896396
1785389268469418200,23.610418212890625,0.875989638325572,1.9076750114060936,-0.040757889383938165
1785389268489506300,23.63050634765625,0.11521043350100517,1.7859024429105221,-0.20504806867865844
1785389268509593300,23.65059326171875,0.4822650457829237,1.6452582929454742,-0.07247981927199289
1785389268529681200,23.67068115234375,0.6258522634625434,2.115763488960266,-0.27975776589456947
1785389268549768200,23.690768310546876,0.2084329070776701,1.8563627573199568,-0.036653906397521495
1785389268569856300,23.710856201171875,-0.055256023275852204,1.93693953820467,0.04757580750416964
1785389268589943300,23.730943359375,-0.1886865886002779,2.0744696478024123,-0.03359934113249183
1785389268610030000,23.751030029296874,-0.05030687643587589,1.8364793684594332,0.099774781296961
1785389268630118400,23.771118408203126,0.11952595861256123,2.3824141917288304,0.38241570141240955
1785389268650205400,23.791205322265625,-0.1745820754021406,2.206189463686198,0.3048727352656424
1785389268670293200,23.811293212890625,-0.34096740034520623,1.9295096804648637,0.4637152436137199
1785389268690380300,23.83138037109375,-0.02296118887066841,2.0702542220644653,0.30553072425033895
1785389268710467300,23.85146728515625,0.17169629083275795,2.20459167310074,0.308471746138297
1785389268730555400,23.871555419921876,0.1787994008362293,2.090116129745543,0.19502740899436175
1785389268750642200,23.89164208984375,0.07042611987888812,1.8442364123269914,0.6356973656505346
1785389268770730200,23.911730224609375,0.06538987927734852,1.5790306476697324,0.2985081321371719
1785389268790817300,23.9318173828125,0.03533493275344372,1.7083315658435225,0.16143910071253775
1785389268810905300,23.9519052734375,-0.11165127971470355,1.8849258578509092,0.19478917979169635
1785389268830992100,23.9719921875,-0.5296703555583954,1.7043234992459415,-0.19080460366755722
1785389268851080200,23.992080078125,-0.3928624227553606,1.460915871029347,-0.12298066564369946
1785389268871167200,24.012167236328125,0.5755220061510801,1.3970675221055746,-0.7410185655608773
1785389268891254300,24.032254150390624,0.7717249617308378,2.134757381635159,0.44857514029014856
1785389268911342300,24.05234228515625,0.3362146528601646,2.589378195297718,-0.4474380260189995
1785389268931429400,24.072429443359376,-0.5845639752626419,1.7017523335836826,0.5853573175974189
1785389268951517400,24.092517333984375,-0.2372445755422115,1.2010850774087012,-1.596677509649843
1785389268971604200,24.112604248046875,1.8247399769574402,1.6845491237178445,0.5666891862781718
1785389268991692300,24.1326923828125,1.0228431643247604,1.0001865113586186,1.3945393188022077
1785389269011779300,24.152779296875,0.7210428222417831,1.3683280420944093,0.739100530045107
1785389269031866400,24.172866455078125,0.26112463282346726,2.474335227318108,0.9767620888903736
1785389269051954200,24.1929541015625,0.09355565105378627,2.171278747694194,0.728564742179215
1785389269072041200,24.213041259765625,-0.5851613566339016,1.7152118268765508,0.44565731661468744
1785389269092129300,24.23312939453125,-0.4445481863290071,1.3214132923148572,0.9766076289810239
1785389269112216300,24.25321630859375,-0.10306816028654575,1.9097507947668433,-0.0441818542169407
1785389269132304100,24.27330419921875,-0.34371231513917444,1.601706005336344,-0.027080205029435454
1785389269152391200,24.29339111328125,-0.5930296057909726,1.5553113339081406,-0.2468205419326201
1785389269172478200,24.313478271484374,-0.28925357972085475,1.5783131470501421,-0.43334049055092033
1785389269192565200,24.333565185546874,0.08863163865506649,1.7621392900072037,-0.22114530833028256
1785389269212652300,24.35365234375,-0.1492161634773016,1.82250242716372,-0.372289736456424
1785389269232740400,24.373740234375,-0.08831599683463573,1.9982184750318526,-0.18941234559156
1785389269252827400,24.393827392578125,-0.1524573373556137,2.000774150864035,-0.00007280950788408517
1785389269272915500,24.41391552734375,-0.20589725112020968,1.9917466486692428,0.034419388811104
1785389269293002200,24.434002197265624,-0.07603694549798964,1.987069742899388,0.09332914882153272
1785389269313089300,24.45408935546875,0.043731005176901816,1.911496030998975,0.05581438781097531
1785389269333177300,24.47417724609375,0.12397884636819362,1.7865550616003572,-0.11367522329036146
1785389269353264400,24.494264404296874,0.15649404552578924,1.4601855109281836,0.4236661418199539
1785389269373352200,24.514352294921874,0.5652747529029846,1.1954850654445588,0.18659224666953086
1785389269393439200,24.534439208984374,0.4885036479115486,0.8472701781891286,0.0906664689509198
1785389269413527300,24.55452734375,1.3456798646956682,2.103383023075759,-0.427641365593858
1785389269433614300,24.5746142578125,2.726752529811859,3.090663583371043,1.899346305130422
1785389269453702100,24.5947021484375,0.7809621611535549,2.660979788696766,-0.3140764708101749
1785389269473789200,24.6147890625,0.05965922667086124,1.948298113695532,1.484132349835336
1785389269493876200,24.634876220703124,0.9839636908322572,1.509808058361709,1.0888682727657257
1785389269513964300,24.65496435546875,1.6087994707286357,2.3012834302231666,0.8581213886797427
1785389269534051300,24.67505126953125,0.019932196438312528,2.599617265239358,0.6406833373695612
