time,seconds_elapsed,z,y,x
1785389244947025700,0.088025634765625,0.054233938455581665,-0.004614447709172964,-0.00791092123836279
1785389244967113700,0.10811376953125,0.052797503769397736,0.01764007657766342,0.0012761210091412067
1785389244987200800,0.12820068359375,0.05489686504006386,0.008629062213003635,-0.0004250030033290386
1785389245007288600,0.14828857421875,0.05304485559463501,0.003920014947652817,-0.0026094100903719664
1785389245027375600,0.168375732421875,0.05380614474415779,0.0038113808259367943,-0.007344735320657492
1785389245047463700,0.188463623046875,0.0502668097615242,-0.0065856571309268475,-0.000027005095034837723
1785389245067550700,0.20855078125,0.049603935331106186,0.022144904360175133,0.002596947830170393
1785389245087637800,0.2286376953125,0.04736991971731186,-0.0036062877625226974,-0.0016207415610551834
1785389245107725600,0.2487255859375,0.045486900955438614,0.02101786620914936,0.0017258485313504934
1785389245127812600,0.2688125,0.044640034437179565,0.01035812683403492,-0.001145082525908947
1785389245147900700,0.288900634765625,0.04303964599967003,-0.011023951694369316,-0.007343222852796316
1785389245167987500,0.308987548828125,0.046132203191518784,0.009660910815000534,-0.0019882391206920147
1785389245188075300,0.3290751953125,0.04755135998129845,0.013031570240855217,-0.005940023344010115
1785389245208162300,0.349162353515625,0.04681789129972458,0.00010759220458567142,-0.010894747450947762
1785389245228249300,0.369249267578125,0.047477345913648605,0.020037822425365448,-0.0010451707057654858
1785389245248337200,0.389337158203125,0.052349913865327835,0.012480082921683788,-0.006420412100851536
1785389245268424200,0.409424072265625,0.05342947691679001,0.015113744884729385,-0.0053504593670368195
1785389245288512300,0.42951220703125,0.04988042637705803,-0.04655773937702179,-0.015778619796037674
1785389245308599300,0.449599365234375,0.05166218429803848,-0.09652739763259888,-0.01769230328500271
1785389245328687400,0.469687255859375,0.19001314043998718,-0.1266757696866989,-0.008127396926283836
1785389245348774100,0.489774169921875,0.042966607958078384,0.4363800585269928,0.29435452818870544
1785389245368862500,0.509862548828125,0.10103956609964371,-0.6080202460289001,-0.13081136345863342
1785389245388949500,0.529949462890625,0.04870475083589554,-0.043654914945364,0.07522102445363998
1785389245409036300,0.550036376953125,0.024706952273845673,0.26277318596839905,0.26276084780693054
1785389245429124400,0.570124267578125,0.04445520043373108,-0.0028963114600628614,-0.015531539916992188
1785389245449211400,0.59021142578125,0.05370282009243965,-0.13417690992355347,-0.05369662493467331
1785389245469299200,0.61029931640625,0.035190485417842865,0.14292988181114197,0.0797036737203598
1785389245489386200,0.63038623046875,0.04534878209233284,0.06755983829498291,0.018419668078422546
1785389245509474300,0.650474365234375,0.042181599885225296,0.09603539854288101,0.016129042953252792
1785389245529561300,0.670561279296875,0.028841331601142883,0.2964543402194977,0.09033820778131485
1785389245549649200,0.690649169921875,0.04402070492506027,0.21329325437545776,0.039451632648706436
1785389245569736200,0.710736083984375,0.054071132093667984,0.059121984988451004,0.014931704849004745
1785389245589824300,0.73082421875,0.05901454761624336,0.011066296137869358,0.003103520255535841
1785389245609911300,0.750911376953125,0.05858474597334862,0.019779309630393982,0.001710280659608543
1785389245629998000,0.770998046875,0.057848718017339706,0.015802495181560516,-0.004401472397148609
1785389245650086400,0.79108642578125,0.059155095368623734,0.011713835410773754,-0.002635098295286298
1785389245670173400,0.81117333984375,0.05738222599029541,0.017299074679613113,-0.004743419587612152
1785389245690261200,0.83126123046875,0.05785972252488136,0.01227134745568037,-0.005126278847455978
1785389245710348300,0.851348388671875,0.05774214491248131,-0.006908454932272434,-0.004964280873537064
1785389245730436400,0.871436279296875,0.056030984967947006,-0.004081804305315018,0.0011944468133151531
1785389245750523400,0.8915234375,0.059093035757541656,0.0018748992588371038,0.0016924786614254117
1785389245770611200,0.911611083984375,0.05791064351797104,0.0027156479191035032,-0.004244526848196983
1785389245790698200,0.9316982421875,0.06390988081693649,0.005618882365524769,-0.00943293608725071
1785389245810786300,0.951786376953125,0.06584303081035614,0.007214814890176058,-0.006258901208639145
1785389245830873300,0.971873291015625,0.06735187023878098,0.027967464178800583,0.001957422122359276
1785389245850960100,0.991960205078125,0.06902648508548737,0.03103477880358696,0.027299590408802032
1785389245871048200,1.012048095703125,0.06636395305395126,0.09865140914916992,0.019696859642863274
1785389245891135200,1.03213525390625,0.06750841438770294,0.009809187613427639,-0.008094762451946735
1785389245911223300,1.052223388671875,0.06767337024211884,-0.02746150828897953,-0.012381160631775856
1785389245931310300,1.072310302734375,0.06790073215961456,0.000991141190752387,-0.010081353597342968
1785389245951398400,1.0923984375,0.06895352900028229,-0.008564025163650513,-0.002148882718756795
1785389245971485400,1.1124853515625,0.06651855260133743,-0.009145970456302166,-0.00968757551163435
1785389245991573200,1.1325732421875,0.0636150911450386,-0.0036845621652901173,-0.023125458508729935
1785389246011660300,1.152660400390625,0.06415904313325882,-0.00415463000535965,-0.023812633007764816
1785389246031748400,1.172748291015625,0.06364463269710541,-0.013771116733551025,-0.015508774667978287
1785389246051835400,1.19283544921875,0.06372638791799545,-0.008310780860483646,-0.00333642796613276
1785389246071922200,1.212922119140625,0.06383968889713287,-0.032433297485113144,-0.005483983084559441
1785389246092010200,1.23301025390625,0.061102062463760376,-0.022643158212304115,-0.016522886231541634
1785389246112097300,1.25309716796875,0.06416470557451248,-0.01789139211177826,-0.015031723305583
1785389246132185300,1.273185302734375,0.06321214884519577,0.005597143433988094,-0.0008038056548684835
1785389246152272100,1.293272216796875,0.06222667172551155,0.008144479244947433,-0.000817346153780818
1785389246172360400,1.3133603515625,0.06597302109003067,-0.0006000753492116928,-0.008060506545007229
1785389246192447500,1.333447509765625,0.06475001573562622,-0.0019028281094506383,-0.00848325528204441
1785389246212535300,1.353535400390625,0.06654433906078339,-0.014228658750653267,-0.009740388952195644
1785389246232622300,1.373622314453125,0.06248939037322998,-0.0028083245269954205,-0.007725664414465427
1785389246252710400,1.39371044921875,0.06148442253470421,0.003627980826422572,-0.011142274364829063
1785389246272797400,1.41379736328125,0.06131543219089508,0.012688509188592434,-0.010259315371513367
1785389246292885500,1.433885498046875,0.061903197318315506,0.05739840120077133,0.0008001567330211401
1785389246312972500,1.45397265625,0.06402380764484406,-0.01941348984837532,-0.024742895737290382
1785389246333060600,1.474060546875,0.05853445082902908,-0.007618659175932407,-0.006858786568045616
1785389246353147400,1.4941474609375,0.053282011300325394,-0.002000743057578802,-0.0030345290433615446
1785389246373234400,1.514234375,0.055360712110996246,0.002149560721591115,0.0037371530197560787
1785389246393322500,1.534322509765625,0.05347604304552078,-0.012672007083892822,-0.00040967599488794804
1785389246413409500,1.554409423828125,0.05209698528051376,-0.01768011599779129,-0.007853043265640736
1785389246433497300,1.574497314453125,0.04947555065155029,-0.019565831869840622,-0.0007654123473912477
1785389246453584400,1.59458447265625,0.049008630216121674,0.0034559848718345165,0.01375064067542553
1785389246473672400,1.61467236328125,0.04538040608167648,0.0064958613365888596,0.014185041189193726
1785389246493759500,1.634759521484375,0.04295286908745766,0.021225661039352417,0.015895817428827286
1785389246513847300,1.654847412109375,0.04303009808063507,0.008813200518488884,0.01761488802731037
1785389246533934300,1.674934326171875,0.04622988775372505,-0.006870688870549202,0.01700289361178875
1785389246554022700,1.695022705078125,0.04589562118053436,-0.004814882762730122,0.01303209736943245
1785389246574109400,1.715109375,0.04671784117817879,0.0001261685974895954,0.009260160848498344
1785389246594197500,1.735197509765625,0.04758964106440544,-0.015055103227496147,0.011319195851683617
1785389246614284500,1.755284423828125,0.04987449198961258,-0.011843464337289333,0.012339204549789429
1785389246634371600,1.77537158203125,0.04982994869351387,-0.0036509267520159483,0.013061681762337685
1785389246654459400,1.79545947265625,0.05173363909125328,-0.0062699452973902225,0.012675664387643337
1785389246674546400,1.81554638671875,0.04960364103317261,-0.008060388267040253,0.009368019178509712
1785389246694634500,1.835634521484375,0.0471319854259491,0.0005445943679660559,0.0041480762884020805
1785389246714721500,1.855721435546875,0.04505772888660431,0.0027131959795951843,0.006795200984925032
1785389246734809300,1.875809326171875,0.04131907969713211,0.010090651921927929,0.008068130351603031
1785389246754896400,1.895896484375,0.03835306689143181,0.0027416148222982883,0.004712997004389763
1785389246774984400,1.915984375,0.03535035252571106,0.006394406780600548,0.009144763462245464
1785389246795071500,1.936071533203125,0.035397134721279144,0.0009931044187396765,0.005537243094295263
1785389246815159300,1.9561591796875,0.034020718187093735,-0.010976341553032398,0.0036106579937040806
1785389246835246300,1.976246337890625,0.03353456035256386,-0.00833158753812313,0.0007322875317186117
1785389246855334400,1.99633447265625,0.03345568850636482,0.0016381221357733011,0.006910635158419609
1785389246875421400,2.01642138671875,0.034593574702739716,0.0009811422787606716,0.006217152811586857
1785389246895509500,2.036509521484375,0.0391119159758091,-0.005747555289417505,0.005323248915374279
1785389246915596500,2.056596435546875,0.04142928496003151,-0.0009082476608455181,0.00773248914629221
1785389246935683600,2.07668359375,0.04135318472981453,-0.0016247605672106147,0.007936259731650352
1785389246955771400,2.096771484375,0.040712445974349976,0.00003688270226120949,0.00733114592730999
1785389246975858400,2.1168583984375,0.04121026024222374,-0.0008597008418291807,0.007257259450852871
1785389246995946500,2.136946533203125,0.041363295167684555,0.0017003079410642385,0.004724694415926933
1785389247016033500,2.157033447265625,0.03723262622952461,0.001754869008436799,0.002765877405181527
1785389247036121300,2.177121337890625,0.03566344827413559,0.00017205183394253254,-0.0001291646622121334
1785389247056208400,2.19720849609375,0.03323427960276604,-0.003584636840969324,0.0009019491262733936
1785389247076296400,2.21729638671875,0.03164786100387573,-0.005930137354880571,0.0038344822824001312
1785389247096383200,2.23738330078125,0.026795219630002975,-0.009773433208465576,0.0028830356895923615
1785389247116471600,2.257471435546875,0.02969367243349552,-0.010858919471502304,0.002666332758963108
1785389247136558600,2.27755859375,0.027501441538333893,-0.00022711139172315598,0.003830505767837167
1785389247156645600,2.297645751953125,0.029276179149746895,-0.0037089840043336153,0.00643071299418807
1785389247176733400,2.3177333984375,0.03010927140712738,-0.00571089331060648,0.005035461857914925
1785389247196820500,2.337820556640625,0.031049983575940132,-0.0013004981447011232,0.002812893595546484
1785389247216908500,2.357908447265625,0.0315282978117466,-0.0030891878996044397,0.0036441257689148188
1785389247236995600,2.37799560546875,0.03298766538500786,-0.007340703159570694,0.004545523319393396
1785389247257083400,2.39808349609375,0.03152963146567345,0.00028130877763032913,0.0022970987483859062
1785389247277170400,2.41817041015625,0.0320102833211422,0.0011300130281597376,0.008109898306429386
1785389247297258500,2.438258544921875,0.0300467349588871,0.009323760867118835,0.009436684660613537
1785389247317345500,2.458345458984375,0.028481019660830498,0.012203868478536606,0.009644491598010063
1785389247337433600,2.47843359375,0.025974858552217484,0.003687269752845168,0.00691643450409174
1785389247357520600,2.498520751953125,0.025459451600909233,0.007224278524518013,0.009634883143007755
1785389247377607700,2.518607666015625,0.02534002624452114,0.01145851705223322,0.007365482393652201
1785389247397695500,2.538695556640625,0.022888058796525,0.008360404521226883,0.005647906567901373
1785389247417782500,2.558782470703125,0.023227130994200706,0.010633192025125027,0.006781430449336767
1785389247437870600,2.57887060546875,0.02517607994377613,0.011938984505832195,0.006683775223791599
1785389247457957600,2.59895751953125,0.026101667433977127,0.0007507018744945526,0.005790902301669121
1785389247478045400,2.61904541015625,0.027397379279136658,-0.003565241117030382,0.006489178165793419
1785389247498132500,2.639132568359375,0.025830144062638283,0.0049969786778092384,0.007190411910414696
1785389247518220500,2.659220458984375,0.026251524686813354,0.003993376158177853,0.012411311268806458
1785389247538307300,2.679307373046875,0.027863360941410065,0.011294844560325146,0.009186492301523685
1785389247558395600,2.699395751953125,0.027154287323355675,0.02483496256172657,0.01577693223953247
1785389247578482700,2.719482666015625,0.027771402150392532,0.01834983192384243,0.01104383822530508
1785389247598569700,2.73956982421875,0.02741522341966629,0.020503342151641846,-0.00018470315262675285
1785389247618657500,2.759657470703125,0.031309980899095535,-0.0030298668425530195,-0.0030373367480933666
1785389247638744600,2.77974462890625,0.026198672130703926,0.0014025219716131687,0.006658066529780626
1785389247658832600,2.79983251953125,0.02694249339401722,0.0022864248603582382,0.010771319270133972
1785389247678919700,2.819919677734375,0.02445702627301216,0.011807424947619438,0.011531527154147625
1785389247699007500,2.840007568359375,0.025813961401581764,0.011661206372082233,0.008293102495372295
1785389247719094500,2.860094482421875,0.027238860726356506,0.009654225781559944,-0.0012455827090889215
1785389247739182600,2.8801826171875,0.028138168156147003,0.011443235911428928,-0.0027019851841032505
1785389247759269400,2.900269287109375,0.029103072360157967,0.004326305352151394,0.007093307562172413
1785389247779356400,2.9203564453125,0.02550439164042473,0.0056723118759691715,0.007859314791858196
1785389247799444500,2.940444580078125,0.026438701897859573,0.022798653692007065,0.004581432323902845
1785389247819531500,2.960531494140625,0.025065762922167778,0.024584807455539703,0.00958621222525835
1785389247839619600,2.98061962890625,0.028193192556500435,0.014698650687932968,0.0042541297152638435
1785389247859706400,3.000706298828125,0.028212251141667366,0.008809680119156837,0.004455076530575752
1785389247879794700,3.020794677734375,0.027878642082214355,0.006964311935007572,0.0054844943806529045
1785389247899881700,3.0408818359375,0.026801036670804024,0.009109076112508774,0.006509009748697281
1785389247919969500,3.060969482421875,0.027249852195382118,0.017674420028924942,0.009340684860944748
1785389247940056600,3.081056640625,0.02517709694802761,0.010210015811026096,0.00897747278213501
1785389247960143600,3.1011435546875,0.02613835223019123,0.011071945540606976,0.002436501905322075
1785389247980231400,3.1212314453125,0.038597799837589264,0.009516846388578415,-0.005343003198504448
1785389248000318500,3.141318359375,0.027158915996551514,-0.007702705450356007,0.049832165241241455
1785389248020406500,3.161406494140625,0.02157321572303772,0.013074365444481373,0.0589253231883049
1785389248040493600,3.18149365234375,0.02674264833331108,0.015683479607105255,0.007179555017501116
1785389248060581400,3.201581298828125,0.03302912786602974,0.01092539168894291,0.013491405174136162
1785389248080668400,3.22166845703125,0.016988135874271393,0.03282243758440018,0.010605566203594208
1785389248100756500,3.241756591796875,0.025492044165730476,0.007456540130078793,-0.0005396613851189613
1785389248120843500,3.261843505859375,0.02989748865365982,0.00407788809388876,-0.0032345943618565798
1785389248140930300,3.281930419921875,0.03262761980295181,0.005714742001146078,0.00445706257596612
1785389248161018600,3.3020185546875,0.03417398780584335,0.013091977685689926,0.013966490514576435
1785389248181105200,3.322105224609375,0.03662295639514923,0.003727422561496496,0.012358004227280617
1785389248201193200,3.342193115234375,0.0393797904253006,-0.01470200251787901,-0.012079363688826561
1785389248221280000,3.362280029296875,0.038508765399456024,-0.007801396772265434,-0.005768571048974991
1785389248241368000,3.3823681640625,0.03542531281709671,-0.016110826283693314,-0.0221160389482975
1785389248261455000,3.402455078125,0.029563885182142258,-0.007865408435463905,-0.022721318528056145
1785389248281543200,3.422543212890625,0.03537141531705856,-0.004204932600259781,-0.03491951525211334
1785389248301630200,3.442630126953125,0.03844386339187622,-0.0027022124268114567,-0.030330808833241463
1785389248321717200,3.46271728515625,0.03589291870594025,-0.012404018081724644,-0.03555682674050331
1785389248341805300,3.482805419921875,0.033752065151929855,0.006589578464627266,-0.021408643573522568
1785389248361892000,3.50289208984375,0.035160552710294724,0.022258298471570015,-0.014494258910417557
1785389248381980200,3.522980224609375,0.04053341597318649,0.026840392500162125,-0.0283358097076416
1785389248402067200,3.543067138671875,0.04016793146729469,0.03141641244292259,-0.03805704414844513
1785389248422155300,3.5631552734375,0.041459303349256516,0.02066783607006073,-0.012463372200727463
1785389248442242000,3.583241943359375,0.04455548897385597,-0.004004430491477251,-0.0034242342226207256
1785389248462329000,3.6033291015625,0.04786558821797371,-0.011388321407139301,-0.006476237438619137
1785389248482417200,3.623417236328125,0.04745986685156822,-0.006988644599914551,-0.012969574891030788
1785389248502504200,3.643504150390625,0.04564375802874565,-0.0015827839961275458,-0.009405631572008133
1785389248522592000,3.663592041015625,0.03932858631014824,0.020606666803359985,0.010653600096702576
1785389248542679000,3.683678955078125,0.03916659951210022,0.04139702394604683,0.03507155179977417
1785389248562767000,3.70376708984375,0.042151838541030884,0.03269651532173157,0.024446135386824608
1785389248582854100,3.723854248046875,0.04749530181288719,0.016908319666981697,0.0015447121113538742
1785389248602942200,3.743942138671875,0.05533606931567192,-0.03198063746094704,-0.02304527722299099
1785389248623029200,3.764029296875,0.057640254497528076,-0.07831314951181412,-0.008968916721642017
1785389248643116300,3.7841162109375,0.05621955171227455,-0.03865427523851395,0.03209063783288002
1785389248663204000,3.8042041015625,0.05320889875292778,0.013746071606874466,0.004990023095160723
1785389248683291100,3.824291015625,0.051034484058618546,0.0203110184520483,-0.013630020432174206
1785389248703379200,3.844379150390625,0.05258530378341675,-0.024375028908252716,-0.014388080686330795
1785389248723466200,3.86446630859375,0.07986623048782349,-0.036151692271232605,0.020057164132595062
1785389248743554000,3.884553955078125,0.5789073705673218,0.0003407718613743782,0.0604412779211998
1785389248763641000,3.90464111328125,0.5115004777908325,0.08249761164188385,0.01573571190237999
1785389248783728000,3.92472802734375,0.24864932894706726,0.025776725262403488,-0.025065181776881218
1785389248803816200,3.944816162109375,0.13762804865837097,-0.05391252785921097,0.00464266212657094
1785389248823903000,3.964903076171875,0.11011958867311478,-0.020861230790615082,0.0006827895995229483
1785389248843991000,3.984990966796875,0.04035712778568268,-0.044991035014390945,-0.014948839321732521
1785389248864078000,4.005078125,0.029354015365242958,0.03675011172890663,0.017897954210639
1785389248884166100,4.025166259765625,0.028664464130997658,0.038318246603012085,0.019576668739318848
1785389248904253200,4.045253173828125,0.03152639791369438,0.046111755073070526,-0.0027032752986997366
1785389248924341200,4.06534130859375,0.03127308934926987,0.033340733498334885,-0.0018845393788069487
1785389248944428300,4.08542822265625,0.03365448862314224,-0.004584546200931072,0.011364953592419624
1785389248964515300,4.105515380859375,0.029086465016007423,-0.01550554670393467,0.04059064760804176
1785389248984603100,4.12560302734375,0.02457405999302864,0.00669854786247015,0.02131546661257744
1785389249004690200,4.145690185546875,0.02781251072883606,0.015824446454644203,0.00031146430410444736
1785389249024778200,4.1657783203125,0.03712209686636925,0.02663267031311989,0.0036815686617046595
1785389249044865000,4.185864990234375,0.04052230343222618,0.010762972757220268,0.012327931821346283
1785389249064953000,4.205953125,0.03384051099419594,0.008977317251265049,0.004179666750133038
1785389249085040000,4.2260400390625,-0.39686211943626404,-0.1247117817401886,-0.020754694938659668
1785389249105127200,4.246127197265625,0.027042971923947334,0.014861635863780975,0.02328214794397354
1785389249125215000,4.266215087890625,0.05083918198943138,-0.0218280628323555,0.00392340449616313
1785389249145302000,4.286302001953125,0.048972342163324356,-0.017239008098840714,-0.007170769385993481
1785389249165390600,4.306390625,0.048509381711483,-0.016355406492948532,0.0012692587915807962
1785389249185477400,4.326477294921875,0.052936770021915436,0.015329687856137753,0.00686454214155674
1785389249205565400,4.3465654296875,0.06171105429530144,0.0035015749745070934,0.0009455401450395584
1785389249225652500,4.366652587890625,0.06340540945529938,-0.012097902595996857,-0.0009120351169258356
1785389249245740300,4.386740234375,0.055878251791000366,-0.010536224581301212,0.0028962851502001286
1785389249265827300,4.406827392578125,0.05011264234781265,0.008701102808117867,0.004342835862189531
1785389249285914400,4.426914306640625,0.054612960666418076,0.020237362012267113,0.005712724756449461
1785389249306002400,4.44700244140625,0.053656768053770065,0.018811317160725594,0.011253842152655125
1785389249326089500,4.46708935546875,0.057814329862594604,0.0060237399302423,0.01235591433942318
1785389249346177300,4.48717724609375,0.058736223727464676,-0.013283824548125267,0.023486435413360596
1785389249366264300,4.507264404296875,0.05674903467297554,-0.0210478063672781,0.02441522292792797
1785389249386352400,4.527352294921875,0.05293256416916847,-0.01996738463640213,0.04802916198968887
1785389249406439400,4.547439453125,0.05060917139053345,-0.009666265919804573,0.09172872453927994
1785389249426527500,4.567527587890625,0.046859487891197205,-0.031824786216020584,0.11522242426872253
1785389249446614500,4.587614501953125,0.06924735754728317,0.007410178426653147,0.040706001222133636
1785389249466701600,4.60770166015625,0.054325878620147705,0.0019634924829006195,0.03535893186926842
1785389249486789400,4.627789306640625,0.0568234883248806,-0.007700229994952679,0.014249549247324467
1785389249506876400,4.64787646484375,0.056892577558755875,-0.004668832290917635,0.01743987202644348
1785389249526964500,4.667964599609375,0.056435033679008484,-0.004111587069928646,0.01758229173719883
1785389249547051500,4.688051513671875,0.05681464448571205,-0.008880265057086945,0.01076642144471407
1785389249567139300,4.708139404296875,0.05497372895479202,-0.008792839013040066,0.008302113972604275
1785389249587226400,4.728226318359375,0.05395394191145897,-0.012945438735187054,0.0036595489364117384
1785389249607314400,4.748314453125,0.05372118204832077,-0.012737978249788284,0.008838864974677563
1785389249627401500,4.7684013671875,0.052914977073669434,0.007104826625436544,0.01155445072799921
1785389249647488300,4.78848828125,0.05119006708264351,0.013394244015216827,0.009653443470597267
1785389249667576300,4.808576416015625,0.05085151270031929,0.005101284943521023,0.006426984444260597
1785389249687663400,4.828663330078125,0.052013762295246124,-0.002471101703122258,0.007120554335415363
1785389249707751400,4.84875146484375,0.05045560747385025,-0.01296269241720438,0.0065491823479533195
1785389249727838200,4.868838134765625,0.05090460553765297,-0.0152992382645607,-0.0032648921478539705
1785389249747926500,4.888926513671875,0.05038752779364586,-0.01589767262339592,-0.0017983310390263796
1785389249768013600,4.909013671875,0.051801230758428574,-0.017158856615424156,0.0020911151077598333
1785389249788101400,4.929101318359375,0.05338192731142044,-0.004822583869099617,0.004431725945323706
1785389249808188400,4.9491884765625,0.052671026438474655,-0.011612612754106522,-0.0001497720368206501
1785389249828276500,4.9692763671875,0.04982633888721466,-0.005088367499411106,0.0016375372651964426
1785389249848363500,4.989363525390625,0.04976281151175499,-0.005642172880470753,0.007570013403892517
1785389249868450300,5.0094501953125,0.04795899987220764,-0.006310881115496159,0.015012769959867
1785389249888538400,5.029538330078125,0.04736868292093277,-0.01155120600014925,0.01325371116399765
1785389249908625400,5.04962548828125,0.047317441552877426,-0.014401298016309738,0.009346362203359604
1785389249928713200,5.069713134765625,0.044445108622312546,-0.008237866684794426,0.009838126599788666
1785389249948800300,5.08980029296875,0.0465766116976738,-0.014191241934895515,0.012529514729976654
1785389249968888300,5.109888427734375,0.04625570774078369,-0.006237502209842205,0.004995861556380987
1785389249988975400,5.129975341796875,0.04647408798336983,-0.0024544820189476013,0.007421468384563923
1785389250009063400,5.1500634765625,0.04413071647286415,-0.0006467169150710106,0.01019463874399662
1785389250029150500,5.170150390625,0.04483239725232124,-0.0014671690296381712,0.01441241055727005
1785389250049237500,5.190237548828125,0.04376677796244621,-0.01754135824739933,0.004474290646612644
1785389250069325600,5.21032568359375,0.04485373944044113,0.004827102646231651,0.010111961513757706
1785389250089412400,5.230412353515625,0.04520726203918457,0.009399882517755032,0.007379310205578804
1785389250109500400,5.25050048828125,0.044754743576049805,-0.013967003673315048,-0.0017506212461739779
1785389250129587500,5.27058740234375,0.042293135076761246,-0.016784673556685448,0.004736223723739386
1785389250149675300,5.29067529296875,0.041834477335214615,-0.012537662871181965,0.0031930459663271904
1785389250169762600,5.310762451171875,0.04132288321852684,0.0026183861773461103,-0.00002644956111907959
1785389250189850600,5.3308505859375,0.0394289530813694,0.004292692989110947,0.005356290377676487
1785389250209937700,5.350937744140625,0.03734438866376877,0.016083061695098877,0.016650531440973282
1785389250230024700,5.371024658203125,0.037869151681661606,0.016564957797527313,0.015874238684773445
1785389250250112500,5.391112548828125,0.035781897604465485,0.016835784539580345,0.012563052587211132
1785389250270199600,5.411199462890625,0.03739646449685097,-0.001753856660798192,0.00997743010520935
1785389250290287600,5.43128759765625,0.03505747765302658,0.005494079552590847,0.00823230016976595
1785389250310374700,5.451374755859375,0.03714965283870697,0.0006493125110864639,0.008685673587024212
1785389250330462700,5.471462646484375,0.03539693355560303,0.015979386866092682,0.01411106251180172
1785389250350549800,5.4915498046875,0.03608102351427078,-0.0024379678070545197,0.010992558673024178
1785389250370637600,5.511637451171875,0.03280022367835045,0.011664191260933876,0.009964073076844215
1785389250390724600,5.531724609375,0.03532955050468445,0.013618016615509987,0.00732942670583725
1785389250410811600,5.551811767578125,0.03145378455519676,0.031061047688126564,0.010235695168375969
1785389250430899700,5.571899658203125,0.03530408814549446,-0.007840635254979134,0.006959308870136738
1785389250450986500,5.591986572265625,0.028034402057528496,0.0072877295315265656,0.00985738169401884
1785389250471074600,5.612074462890625,0.027973832562565804,0.01786721497774124,0.01557213719934225
1785389250491161600,5.63216162109375,0.024695657193660736,0.023531345650553703,0.010944626294076443
1785389250511249700,5.652249755859375,0.02667921595275402,0.05478023365139961,0.014075728133320808
1785389250531336400,5.67233642578125,0.026075905188918114,0.049727652221918106,0.013961948454380035
1785389250551424800,5.6924248046875,0.02735791727900505,0.00081055355258286,0.00966544821858406
1785389250571511800,5.71251171875,0.026598740369081497,0.03197687491774559,0.012243390083312988
1785389250591598800,5.732598876953125,0.027656298130750656,0.04251323640346527,0.013741374015808105
1785389250611686700,5.752686767578125,0.028517166152596474,0.03477060794830322,0.01468565408140421
1785389250631773700,5.772773681640625,0.03134075552225113,0.00265585002489388,0.0113248061388731
1785389250651861800,5.79286181640625,0.03143148869276047,0.0015399933326989412,0.011719011701643467
1785389250671948500,5.812948486328125,0.030455898493528366,0.01024498138576746,0.010233031585812569
1785389250692036600,5.83303662109375,0.030855294317007065,0.0036398160737007856,0.01261262409389019
1785389250712123600,5.85312353515625,0.031905099749565125,0.02483203448355198,0.00734776072204113
1785389250732211700,5.873211669921875,0.030407113954424858,0.019221121445298195,0.006529823876917362
1785389250752298500,5.893298583984375,0.02871483936905861,0.019970502704381943,0.0026410140562802553
1785389250772385500,5.913385498046875,0.028029682114720345,0.004013457335531712,0.005264962092041969
1785389250792473600,5.9334736328125,0.026054764166474342,-0.004060510080307722,0.00744459917768836
1785389250812560600,5.953560546875,0.02460138127207756,0.005467390641570091,0.0033575466368347406
1785389250832648700,5.973648681640625,0.02481437474489212,0.020059451460838318,0.005421886686235666
1785389250852735700,5.99373583984375,0.027278274297714233,0.004718855954706669,0.008960450068116188
1785389250872823800,6.01382373046875,0.03929068520665169,0.0005668855737894773,0.006600969471037388
1785389250892910600,6.03391064453125,0.18556790053844452,-0.03063468635082245,0.04405650869011879
1785389250912997600,6.05399755859375,0.22847501933574677,0.002894912613555789,0.030016569420695305
1785389250933085700,6.074085693359375,0.11167199164628983,0.02923399582505226,0.018245190382003784
1785389250953172700,6.0941728515625,0.1012798547744751,0.02120833843946457,0.016780002042651176
1785389250973260500,6.114260498046875,0.11523603647947311,-0.016311850398778915,0.028835907578468323
1785389250993347600,6.13434765625,0.006601989269256592,-0.0277247317135334,-0.003248036140576005
1785389251013435600,6.154435546875,0.021134762093424797,-0.0164447370916605,0.015536671504378319
1785389251033522700,6.174522705078125,0.016968488693237305,-0.019571591168642044,0.007932960987091064
1785389251053610500,6.194610595703125,-0.025301996618509293,-0.009478801861405373,0.009347261860966682
1785389251073697500,6.214697509765625,-0.03397266939282417,-0.023570075631141663,0.018521668389439583
1785389251093784600,6.23478466796875,0.013358295895159245,-0.02451510541141033,-0.001574850408360362
1785389251113872600,6.25487255859375,0.009333732537925243,0.008151969872415066,0.007494707591831684
1785389251133959400,6.27495947265625,-0.0006152922287583351,0.00874254573136568,0.011870606802403927
1785389251154047700,6.2950478515625,0.010299939662218094,-0.020508816465735435,0.007332846987992525
1785389251174134300,6.31513427734375,0.019935455173254013,-0.02491382509469986,-0.0005442898254841566
1785389251194222300,6.335222412109375,0.021225281059741974,-0.03524157777428627,0.008957049809396267
1785389251214309000,6.35530908203125,0.011171677149832249,0.017905088141560555,0.004372050520032644
1785389251234397200,6.375397216796875,0.05495193600654602,-0.009593605995178223,0.021479785442352295
1785389251254484200,6.395484130859375,0.018871596083045006,0.009723065420985222,0.009451555088162422
1785389251274571300,6.4155712890625,0.012526439502835274,0.007010783068835735,0.009843308478593826
1785389251294659300,6.435659423828125,-0.11019786447286606,0.010682846419513226,0.05326078087091446
1785389251314746400,6.455746337890625,-0.06382288783788681,-0.0441097691655159,0.04385722428560257
1785389251334834400,6.47583447265625,-0.0751732736825943,0.019736001268029213,0.042545512318611145
1785389251354921200,6.495921142578125,-0.013490883633494377,0.00247352197766304,-0.007583681493997574
1785389251375009300,6.51600927734375,0.003818162716925144,-0.006149437744170427,0.007783456705510616
1785389251395096300,6.536096435546875,-0.010421905666589737,0.0021728058345615864,0.00830359011888504
1785389251415184400,6.556184326171875,-0.13968129456043243,0.04196276143193245,0.003583545796573162
1785389251435271200,6.576271240234375,-0.2632473409175873,0.004040712956339121,0.029945440590381622
1785389251455359200,6.596359130859375,-0.2609844207763672,-0.007232556119561195,0.021649982780218124
1785389251475446300,6.6164462890625,-0.2842024564743042,-0.014315011911094189,0.024273645132780075
1785389251495533300,6.636533203125,-0.20594681799411774,0.013270441442728043,0.0257006473839283
1785389251515621000,6.65662109375,0.0008832807652652264,0.005305889993906021,0.022933704778552055
1785389251535708200,6.676708251953125,0.03644382953643799,0.0371093824505806,0.007417104206979275
1785389251555796500,6.69679638671875,0.03535110130906105,0.0312642902135849,0.0033941171132028103
1785389251575883300,6.71688330078125,0.03906834125518799,0.029675984755158424,0.0032817316241562366
1785389251595971300,6.736971435546875,0.04949015751481056,0.006273597478866577,0.002069499809294939
1785389251616058400,6.757058349609375,0.040378469973802567,0.017018433660268784,0.004586801864206791
1785389251636146400,6.777146484375,0.06398722529411316,0.0066015105694532394,0.0034827175550162792
1785389251656233200,6.797233154296875,0.06810948997735977,0.011668340303003788,0.0009293588809669018
1785389251676320300,6.8173203125,0.07359623163938522,0.0034590258728712797,0.006031445227563381
1785389251696408300,6.837408203125,0.04603805020451546,0.01618415303528309,0.005571804940700531
1785389251716495400,6.857495361328125,0.03351335600018501,0.01656080037355423,0.0028358176350593567
1785389251736583200,6.877583251953125,0.0671723410487175,0.003347979160025716,-0.0030264402739703655
1785389251756670200,6.897670166015625,0.18241731822490692,0.048541903495788574,0.00176872534211725
1785389251776758300,6.91775830078125,0.2285803258419037,0.028754184022545815,0.01003003679215908
1785389251796845300,6.93784521484375,0.0720231756567955,-0.0007894283626228571,0.009371250867843628
1785389251816933000,6.95793310546875,0.026891112327575684,0.03057435154914856,0.005118449218571186
1785389251837020200,6.978020263671875,0.06010054424405098,0.027694400399923325,-0.0007165935821831226
1785389251857107200,6.998107177734375,0.07727815210819244,0.01493216771632433,0.0034734378568828106
1785389251877195300,7.0181953125,0.12920545041561127,-0.029577655717730522,0.020706750452518463
1785389251897282300,7.0382822265625,0.03727203607559204,-0.02113094925880432,0.006845677271485329
1785389251917370400,7.058370361328125,0.023715613409876823,-0.016907157376408577,0.0014102431014180183
1785389251937457400,7.07845751953125,0.022302109748125076,0.01198045164346695,-0.004838801920413971
1785389251957545200,7.098545166015625,0.10858720541000366,-0.009073757566511631,0.021129578351974487
1785389251977632300,7.11863232421875,0.017680449411273003,-0.0069609032943844795,0.007549896836280823
1785389251997719300,7.13871923828125,0.02120979130268097,-0.030097782611846924,0.008566443808376789
1785389252017807400,7.158807373046875,0.021129678934812546,-0.024048101156949997,0.007204319816082716
1785389252037894100,7.17889404296875,0.020684635266661644,-0.0303655993193388,0.00714054424315691
1785389252057982200,7.198982177734375,0.020893467590212822,-0.029622474685311317,0.007571629714220762
1785389252078069200,7.2190693359375,0.021250421181321144,-0.024905070662498474,0.002776344073936343
1785389252098157000,7.239156982421875,0.020427679643034935,-0.021850572898983955,0.0028655575588345528
1785389252118244000,7.259244140625,0.020358886569738388,-0.005935230292379856,0.007652061525732279
1785389252138332400,7.27933251953125,0.02221699245274067,-0.003680499503389001,0.008060812950134277
1785389252158419500,7.29941943359375,0.020176799967885017,-0.0032727806828916073,0.0016979679930955172
1785389252178508000,7.319508056640625,0.02176688238978386,-0.011678929440677166,0.0007008782122284174
1785389252198595000,7.339594970703125,0.022553065791726112,-0.0027266540564596653,0.0028591707814484835
1785389252218682000,7.35968212890625,0.021902423352003098,0.008377715945243835,0.005572805181145668
1785389252238770000,7.37977001953125,0.023082362487912178,0.02242138423025608,-0.0002461604308336973
1785389252258857000,7.39985693359375,0.02494914084672928,0.026141198351979256,0.0025388081558048725
1785389252278945000,7.419945068359375,0.021957147866487503,0.015724383294582367,0.007712570950388908
1785389252299032000,7.440031982421875,0.022551260888576508,0.005885941907763481,0.006892670411616564
1785389252319120000,7.460119873046875,0.022821741178631783,-0.002386724576354027,0.0039712837897241116
1785389252339207000,7.48020703125,0.02287820540368557,-0.01675213873386383,0.007522505708038807
1785389252359294000,7.5002939453125,0.02484757825732231,-0.012743974104523659,0.0019181265961378813
1785389252379382000,7.520382080078125,0.025078292936086655,0.0027675461024045944,0.0018242225050926208
1785389252399469000,7.540468994140625,0.024401063099503517,0.0002795080654323101,0.007061388343572617
1785389252419557000,7.56055712890625,0.023935317993164062,-0.01416031550616026,0.0033174362033605576
1785389252439644200,7.58064404296875,0.025338537991046906,-0.01743999868631363,0.0031288843601942062
1785389252459732000,7.60073193359375,0.024317706003785133,-0.008657794445753098,0.007631304673850536
1785389252479819000,7.620819091796875,0.023376332595944405,-0.003654524916782975,0.0004066608380526304
1785389252499906000,7.640906005859375,0.024721907451748848,-0.0006892257370054722,0.0040189544670283794
1785389252519994000,7.660994140625,0.023505641147494316,-0.0026389257982373238,0.002553416881710291
1785389252540081200,7.6810810546875,0.024088183417916298,0.004532678052783012,0.0015560213942080736
1785389252560169000,7.7011689453125,0.02547319047152996,-0.004616912454366684,0.006091322749853134
1785389252580256000,7.721256103515625,0.026895010843873024,-0.005395988933742046,0.0052551706321537495
1785389252600344000,7.741343994140625,0.025875328108668327,-0.004059512633830309,0.007880434393882751
1785389252620430800,7.761430908203125,0.02699550800025463,0.008411526679992676,0.0045562563464045525
1785389252640519000,7.781518798828125,0.026098931208252907,0.009391280822455883,0.0067690350115299225
1785389252660606000,7.80160595703125,0.024697788059711456,0.009931115433573723,0.004200170747935772
1785389252680693000,7.82169287109375,0.02602882869541645,-0.008501631207764149,0.0027043765876442194
1785389252700781000,7.841781005859375,0.025853313505649567,-0.006558743305504322,0.004768799524754286
1785389252720868000,7.8618681640625,0.0258116964250803,-0.010021168738603592,0.006820985581725836
1785389252740956200,7.8819560546875,0.029519284144043922,0.0020465380512177944,0.00441744364798069
1785389252761043000,7.90204296875,0.027380511164665222,0.004593737423419952,0.006674532312899828
1785389252781131000,7.922131103515625,0.027380306273698807,0.008513042703270912,0.006233122665435076
1785389252801218000,7.942218017578125,0.026656396687030792,-0.0035957491490989923,0.006616208702325821
1785389252821305000,7.96230517578125,0.026277264580130577,-0.0006638406775891781,0.0044010537676513195
1785389252841393000,7.982392822265625,0.025261543691158295,0.003480779705569148,0.007303529419004917
1785389252861480000,8.00247998046875,0.026515085250139236,0.00356738967821002,0.006279913708567619
1785389252881568000,8.022568115234375,0.028079651296138763,0.00232678628526628,0.009711743332445621
1785389252901655000,8.042655029296874,0.026305537670850754,-0.008062532171607018,0.005396995227783918
1785389252921742800,8.062742919921876,0.02643183246254921,-0.008618668653070927,0.007423270959407091
1785389252941830000,8.082829833984375,0.023868467658758163,0.008838266134262085,0.009509389288723469
1785389252961918200,8.102918212890625,0.02476198785007,0.015500414185225964,0.012301729992032051
1785389252982005000,8.1230048828125,0.026942512020468712,-0.00389680452644825,0.012906864285469055
1785389253002092000,8.143092041015626,0.027656394988298416,-0.0037897229194641113,0.011222455650568008
1785389253022180000,8.16318017578125,0.0248919315636158,0.0011338952463120222,0.010401074774563313
1785389253042267100,8.18326708984375,0.02537688799202442,0.013015112839639187,0.008805944584310055
1785389253062355000,8.20335498046875,0.024312488734722137,0.004863051697611809,0.013493945822119713
1785389253082442000,8.22344189453125,0.024421507492661476,0.008057869970798492,0.01111510954797268
1785389253102530000,8.243530029296876,0.026341823861002922,0.0018112785182893276,0.01135665737092495
1785389253122617000,8.2636171875,0.02722545526921749,-0.0051991697400808334,0.007528998423367739
1785389253142704000,8.2837041015625,0.02685965783894062,-0.006255250424146652,0.0046999407932162285
1785389253162792000,8.3037919921875,0.026282235980033875,0.0011589438654482365,0.009839759208261967
1785389253182879200,8.323879150390624,0.02851703204214573,0.0003362218849360943,0.009171124547719955
1785389253202967000,8.343967041015626,0.02905653975903988,-0.0012473392998799682,0.008983821608126163
1785389253223054000,8.36405419921875,0.027009157463908195,-0.003524885978549719,0.005444193258881569
1785389253243142100,8.38414208984375,0.02824186161160469,-0.004036031663417816,0.006084214895963669
1785389253263229200,8.404229248046875,0.027346156537532806,-0.01449793204665184,0.007374410983175039
1785389253283316200,8.424316162109376,0.02825108729302883,-0.014548949897289276,0.00441504642367363
1785389253303404000,8.444404052734376,0.028956981375813484,-0.01388819795101881,0.0034398382995277643
1785389253323491000,8.464490966796875,0.029778052121400833,-0.009216384962201118,0.00666914414614439
1785389253343579100,8.4845791015625,0.030323443934321404,-0.01187905203551054,0.006842129863798618
1785389253363666200,8.504666259765624,0.03258129209280014,-0.020498868077993393,0.005652881693094969
1785389253383754200,8.524754150390624,0.03363781422376633,-0.023424245417118073,0.0034876514691859484
1785389253403841300,8.54484130859375,0.03501057252287865,-0.025821924209594727,0.007828808389604092
1785389253423928300,8.56492822265625,0.03758785501122475,-0.006920268759131432,0.008975014090538025
1785389253444016000,8.58501611328125,0.03420241177082062,-0.006019746884703636,0.010930817574262619
1785389253464103200,8.605103271484374,0.03600761294364929,-0.012573599815368652,0.010326134972274303
1785389253484191200,8.625191162109376,0.03943832963705063,-0.031600601971149445,0.005147211253643036
1785389253504278300,8.6452783203125,0.03856619819998741,-0.023521117866039276,0.0050443927757442
1785389253524366000,8.665365966796875,0.038230687379837036,-0.01226948294788599,0.0063467612490057945
1785389253544453000,8.685453125,0.03796311467885971,-0.022180352360010147,0.009831976145505905
1785389253564540200,8.7055400390625,0.04513676464557648,-0.1132517084479332,-0.009122601710259914
1785389253584628200,8.725628173828126,0.03805423527956009,0.01257133949548006,0.02254396304488182
1785389253604715000,8.745715087890625,0.0386672280728817,-0.007515961304306984,0.010620951652526855
1785389253624803000,8.765802978515625,0.04120158776640892,0.003547787433490157,0.011654682457447052
1785389253644890000,8.78589013671875,0.045229002833366394,0.006284159608185291,0.013303879648447037
1785389253664978000,8.80597802734375,0.042208943516016006,-0.009343961253762245,0.0061636557802557945
1785389253685065000,8.82606494140625,0.04180184379220009,-0.009250659495592117,0.004238621331751347
1785389253705152000,8.846152099609375,0.042275574058294296,-0.021305236965417862,0.0025575514882802963
1785389253725240300,8.866240234375,0.04384773224592209,-0.025984320789575577,0.006072290241718292
1785389253745327400,8.886327392578124,0.040819231420755386,-0.025615427643060684,0.005256114061921835
1785389253765415200,8.906415283203126,0.04217665642499924,-0.03328730911016464,-0.0014464696869254112
1785389253785502200,8.926502197265625,0.043022725731134415,-0.03353161737322807,-0.005269660614430904
1785389253805590300,8.94659033203125,0.04194250702857971,-0.03780156373977661,-0.002890045754611492
1785389253825677000,8.966677001953125,0.04218071326613426,-0.04167580232024193,0.0011388033162802458
1785389253845764000,8.98676416015625,0.03860578313469887,-0.0322507843375206,0.004190418403595686
1785389253865852200,9.00685205078125,0.04001843184232712,-0.02075314149260521,0.004028456751257181
1785389253885939200,9.026939208984375,0.042694296687841415,-0.013026008382439613,0.007162365596741438
1785389253906027000,9.047027099609375,0.042840681970119476,-0.028125479817390442,0.0038826807867735624
1785389253926114000,9.067114013671874,0.0450933463871479,-0.03126644715666771,-0.0004543391987681389
1785389253946202000,9.0872021484375,0.042995840311050415,-0.05675981938838959,-0.01782134547829628
1785389253966289200,9.1072890625,0.0479351282119751,-0.16180208325386047,-0.05173930525779724
1785389253986377200,9.127377197265625,0.04157472401857376,-0.04695111885666847,-0.005916994530707598
1785389254006464300,9.14746435546875,0.026768384501338005,0.25845852494239807,0.07913842797279358
1785389254026551300,9.16755126953125,0.048383455723524094,-0.1255747377872467,-0.036765821278095245
1785389254046639000,9.18763916015625,0.04119095578789711,-0.015906596556305885,0.008621837943792343
1785389254066726100,9.20772607421875,0.03832339122891426,0.08444458246231079,0.04160287231206894
1785389254086814200,9.227814208984375,0.045936666429042816,-0.05882859602570534,-0.005884320475161076
1785389254106901200,9.2479013671875,0.044209662824869156,0.010270832106471062,0.011991862207651138
1785389254126989000,9.267989013671874,0.04655991494655609,0.01744767092168331,0.015773877501487732
1785389254147076000,9.288076171875,0.05093766003847122,-0.003037527669221163,0.012724475935101509
1785389254167161900,9.308161865234375,0.051567234098911285,-0.03786960244178772,0.004812121856957674
1785389254187250200,9.328250244140625,0.05227232724428177,-0.008711103349924088,0.024950291961431503
1785389254207337000,9.3483369140625,0.05375569686293602,-0.018162282183766365,0.015438485890626907
1785389254227425000,9.368425048828126,0.0520068034529686,0.025585409253835678,0.027966957539319992
1785389254247512000,9.388511962890625,0.05299590900540352,0.016355369240045547,0.01909826137125492
1785389254267600100,9.40860009765625,0.05554412305355072,-0.036897700279951096,0.0007390235550701618
1785389254287687200,9.428687255859375,0.04993633180856705,0.10857431590557098,0.03451068699359894
1785389254307774000,9.44877392578125,0.0532146617770195,0.08639781177043915,0.021599460393190384
1785389254327862000,9.468862060546876,0.055027853697538376,0.039870765060186386,0.013061325065791607
1785389254347949000,9.488948974609375,0.05196458846330643,0.11667810380458832,0.03232167288661003
1785389254368036900,9.509036865234375,0.059034619480371475,0.02192968688905239,0.00687845004722476
1785389254388124000,9.5291240234375,0.05639702454209328,0.09149837493896484,0.040619902312755585
1785389254408212000,9.5492119140625,0.06369398534297943,0.013054667972028255,0.05067221075296402
1785389254428299000,9.569299072265625,0.06511153280735016,-0.006522806361317635,0.040322545915842056
1785389254448386000,9.589385986328125,0.06847929209470749,-0.020897570997476578,0.012312550097703934
1785389254468473900,9.609473876953125,0.07161866128444672,-0.011178115382790565,0.005610987544059753
1785389254488561000,9.629560791015624,0.07599149644374847,0.02517607994377613,0.02471710368990898
1785389254508649200,9.649649169921876,0.0780511274933815,0.016354959458112717,0.02181358076632023
1785389254528736000,9.669736083984375,0.08141887187957764,0.013162480667233467,0.01669924519956112
1785389254548824000,9.689823974609375,0.08240634948015213,0.0017243744805455208,0.009785988368093967
1785389254568911000,9.7099111328125,0.08533947169780731,-0.003925193566828966,0.01023302786052227
1785389254588998100,9.729998046875,0.08880200237035751,-0.008618135936558247,0.0011296886950731277
1785389254609086000,9.7500859375,0.094142384827137,0.0049647381529212,0.001367958728224039
1785389254629173000,9.770173095703125,0.10029925405979156,-0.007551943883299828,0.004349468741565943
1785389254649261000,9.790260986328125,0.10199342668056488,-0.028227677568793297,0.006150219589471817
1785389254669348000,9.81034814453125,0.10933438688516617,-0.020333103835582733,0.00519449170678854
1785389254689436000,9.830435791015624,0.10967415571212769,0.0109840277582407,-0.008835122920572758
1785389254709523000,9.85052294921875,0.11251730471849442,-0.010191726498305798,-0.009200798347592354
1785389254729610000,9.87060986328125,0.11587180197238922,-0.01280006393790245,-0.002137415576726198
1785389254749698000,9.890697998046875,0.11746673285961151,-0.002968365792185068,-0.0006338176317512989
1785389254769784800,9.910784912109374,0.12126877158880234,-0.013107841834425926,-0.0029793051071465015
1785389254789873200,9.930873046875,0.12502813339233398,-0.0214536115527153,0.0019185972632840276
1785389254809960200,9.950960205078125,0.12758594751358032,-0.029488181695342064,0.004525687545537949
1785389254830048000,9.971048095703125,0.12825801968574524,-0.023120691999793053,0.0066332947462797165
1785389254850135000,9.991135009765625,0.1322370320558548,-0.02410200797021389,-0.0009867050684988499
1785389254870222000,10.01122216796875,0.1372874528169632,-0.05411199480295181,0.0010446945670992136
1785389254890310100,10.03131005859375,0.13803577423095703,-0.06033666431903839,0.0009423629380762577
1785389254910397000,10.05139697265625,0.14140181243419647,-0.03114437125623226,0.013354603201150894
1785389254930485000,10.071485107421875,0.14465579390525818,-0.03552679717540741,0.014797419309616089
1785389254950572000,10.091572021484374,0.147862508893013,-0.047941386699676514,0.019873404875397682
1785389254970660000,10.11166015625,0.14942240715026855,-0.05262360721826553,0.0245648305863142
1785389254990747000,10.131746826171875,0.15048423409461975,-0.043852128088474274,0.013410137966275215
1785389255010834000,10.151833984375,0.1514679193496704,-0.04232882708311081,0.011904552578926086
1785389255030922000,10.171921875,0.15045560896396637,-0.017816869542002678,0.01473328098654747
1785389255051009000,10.192009033203124,0.15308329463005066,-0.015020063146948814,0.015801124274730682
1785389255071097000,10.21209716796875,0.1577361673116684,-0.008653312921524048,0.016667593270540237
1785389255091184000,10.23218408203125,0.15726594626903534,0.004836810752749443,0.022750789299607277
1785389255111272200,10.252272216796875,0.15997883677482605,0.005276445299386978,0.022513723000884056
1785389255131359000,10.27235888671875,0.16197863221168518,0.0006765853613615036,0.021852318197488785
1785389255151446000,10.292446044921874,0.1621367335319519,0.00767969386652112,0.015815094113349915
1785389255171534300,10.312534423828126,0.1633567214012146,0.012132346630096436,0.007593855261802673
1785389255191621400,10.332621337890625,0.16518016159534454,0.013372008688747883,0.015058044344186783
1785389255211709200,10.352709228515625,0.1608843207359314,0.03998223692178726,0.026517482474446297
1785389255231796200,10.372796142578125,0.15477034449577332,0.061858274042606354,0.03510650247335434
1785389255251884300,10.39288427734375,0.15273763239383698,0.05423814058303833,0.04653865098953247
1785389255271971300,10.412971435546876,0.15599478781223297,0.05083184316754341,0.04202060028910637
1785389255292058000,10.43305810546875,0.15812109410762787,0.034316349774599075,0.03659646213054657
1785389255312146400,10.453146484375,0.15733999013900757,0.023077543824911118,0.029395272955298424
1785389255332233500,10.4732333984375,0.1511446088552475,0.03335309401154518,0.034803640097379684
1785389255352321300,10.4933212890625,0.14798472821712494,0.029105518013238907,0.04662815481424332
1785389255372408300,10.513408203125,0.14419636130332947,0.006363357417285442,0.05294681712985039
1785389255392496400,10.533496337890625,0.1425916701555252,-0.0320725254714489,0.0583219975233078
1785389255412583400,10.55358349609375,0.14054831862449646,-0.04195122420787811,0.05016452819108963
1785389255432670500,10.57367041015625,0.13526514172554016,-0.031088778749108315,0.04466073587536812
1785389255452758300,10.59375830078125,0.1380564272403717,-0.05146414786577225,0.04427793622016907
1785389255472845300,10.61384521484375,0.1301371306180954,-0.04456242918968201,0.03973083943128586
1785389255492933400,10.633933349609375,0.13238106667995453,-0.03573175519704819,0.04362126439809799
1785389255513020200,10.654020263671875,0.12363208085298538,-0.030784033238887787,0.04233887419104576
1785389255533108200,10.674108154296874,0.11808008700609207,-0.04699893295764923,0.03599073737859726
1785389255553195300,10.6941953125,0.10306847840547562,-0.017708921805024147,0.04842376336455345
1785389255573283000,10.714282958984375,0.10056246817111969,-0.012008918449282646,0.04622437804937363
1785389255593370000,10.7343701171875,0.09375796467065811,-0.0012263852404430509,0.06250463426113129
1785389255613457200,10.75445703125,0.0799795389175415,0.027675088495016098,0.055377621203660965
1785389255633545500,10.77454541015625,0.08055650442838669,-0.12549519538879395,0.02840392477810383
1785389255653632500,10.794632568359376,0.06860613077878952,-0.02355020120739937,0.029218334704637527
1785389255673720300,10.81472021484375,0.06709609925746918,-0.024438463151454926,0.006222515366971493
1785389255693807400,10.834807373046875,0.05817319452762604,-0.035085417330265045,0.011984754353761673
1785389255713895400,10.8548955078125,0.06280124187469482,-0.02782830409705639,0.007793204393237829
1785389255733982200,10.874982177734376,0.05596553161740303,-0.0215974822640419,0.005129676312208176
1785389255754069200,10.8950693359375,0.054871175438165665,0.016278861090540886,0.009545853361487389
1785389255774157300,10.9151572265625,0.0476236492395401,0.030104396864771843,0.0008229359518736601
1785389255794244400,10.935244384765625,0.044676024466753006,0.046305101364851,0.002330631483346224
1785389255814332200,10.955332275390624,0.04316742718219757,0.013193956576287746,0.0019001044565811753
1785389255834419200,10.975419189453126,0.04116516560316086,-0.0024247742258012295,-0.00017200037837028503
1785389255854507300,10.99550732421875,0.03742685168981552,-0.02220822311937809,0.004712213762104511
1785389255874594300,11.01559423828125,0.0338226743042469,-0.04598745331168175,0.010333862155675888
1785389255894681000,11.03568115234375,0.02488069236278534,-0.03243683651089668,0.002575663151219487
1785389255914769400,11.055769287109374,0.01882459782063961,-0.008209936320781708,0.0013188787270337343
1785389255934856400,11.0758564453125,0.012234659865498543,-0.018919050693511963,-0.011357522569596767
1785389255954944300,11.0959443359375,0.009724642150104046,-0.028619462624192238,-0.016200954094529152
1785389255975031300,11.11603125,0.009482070803642273,-0.04185314103960991,-0.011581781320273876
1785389255995119400,11.136119384765625,0.0069581023417413235,-0.04683659225702286,-0.009592401795089245
1785389256015206400,11.156206298828126,0.010369786992669106,-0.038660306483507156,0.0005190856754779816
1785389256035294200,11.176294189453126,0.006158923730254173,-0.006768378429114819,0.00637833122164011
1785389256055381200,11.19638134765625,0.002770711202174425,0.00020757992751896381,0.008463501930236816
1785389256075468300,11.21646826171875,0.0028370178770273924,0.0000915229320526123,0.006758915260434151
1785389256095556400,11.236556396484374,0.00045850660535506904,-0.0030425875447690487,0.005834346171468496
1785389256115643100,11.25664306640625,-0.0005423155380412936,0.001755154225975275,0.0029273428954184055
1785389256135731200,11.276731201171875,-0.006035157945007086,0.0033492366783320904,0.0012078038416802883
1785389256155818200,11.296818359375,-0.006492525804787874,-0.0010775034315884113,-0.012704079039394855
1785389256175906800,11.31690673828125,-0.0042912596836686134,0.003818418364971876,-0.03163628652691841
1785389256195993900,11.336993896484374,-0.008797395043075085,0.02360103465616703,-0.04273930937051773
1785389256216081000,11.357080810546876,-0.00872217770665884,0.041126951575279236,-0.04138709977269173
1785389256236169000,11.3771689453125,-0.006186110898852348,0.04485011845827103,-0.04009294882416725
1785389256256255700,11.397255859375,-0.007070758379995823,0.04147108644247055,-0.045703448355197906
1785389256276343800,11.41734375,-0.005445576272904873,0.03446098044514656,-0.04542619735002518
1785389256296430800,11.437430908203124,-0.0027561169117689133,0.02785167284309864,-0.043942589312791824
1785389256316519000,11.457518798828126,-0.0012924374314025044,0.024749834090471268,-0.03544348105788231
1785389256336606000,11.47760595703125,0.001473564188927412,0.021134160459041595,-0.035435304045677185
1785389256356694000,11.497694091796875,0.0019747407641261816,0.014962069690227509,-0.029549576342105865
1785389256376781000,11.517781005859375,0.0018834129441529512,0.017919568344950676,-0.034493137151002884
1785389256396868000,11.5378681640625,0.006937704980373383,0.010501507669687271,-0.03635614737868309
1785389256416956000,11.557955810546876,0.007673046085983515,0.01773368939757347,-0.0415632389485836
1785389256437043000,11.57804296875,0.012516597285866737,0.020600248128175735,-0.05225169286131859
1785389256457131000,11.598131103515625,0.012215381488204002,0.032661549746990204,-0.045884136110544205
1785389256477217800,11.6182177734375,0.011103972792625427,0.045029714703559875,-0.05570128187537193
1785389256497305900,11.638305908203124,0.005922435317188501,0.06152332201600075,-0.06491982191801071
1785389256517393000,11.658392822265625,-0.0009193769074045122,0.07504784315824509,-0.05579783767461777
1785389256537480700,11.678480712890625,-0.00588225619867444,0.07289385050535202,-0.04006211459636688
1785389256557567700,11.698567626953125,-0.01018159743398428,0.04953647032380104,-0.041014157235622406
1785389256577654800,11.71865478515625,-0.011816523037850857,0.015223350375890732,-0.04419190064072609
1785389256597743000,11.7387431640625,-0.012046875432133675,0.0044656675308942795,-0.051415130496025085
1785389256617830100,11.758830078125,-0.012609637342393398,0.013990571722388268,-0.06258685141801834
1785389256637918000,11.77891796875,-0.008820818737149239,0.001567525789141655,-0.06765525043010712
1785389256658005000,11.7990048828125,-0.006499679759144783,-0.014483699575066566,-0.07341134548187256
1785389256678093000,11.819093017578124,-0.008706399239599705,-0.030413933098316193,-0.09892039746046066
1785389256698179800,11.839179931640626,-0.0032946683932095766,-0.040628254413604736,-0.09753857553005219
1785389256718268000,11.859267822265625,-0.001231335918419063,-0.046532683074474335,-0.09473570436239243
1785389256738355000,11.87935498046875,-0.0021026316098868847,-0.055690616369247437,-0.0969538539648056
1785389256758442000,11.89944189453125,-0.004648619331419468,-0.05510466545820236,-0.0757049173116684
1785389256778529800,11.91952978515625,-0.006415796000510454,-0.05865536630153656,-0.07450100779533386
1785389256798616800,11.939616943359376,-0.013889455236494541,-0.04227021336555481,-0.07785911113023758
1785389256818705000,11.959704833984375,-0.008650587871670723,-0.036677874624729156,-0.07056824117898941
1785389256838792000,11.9797919921875,-0.020182128995656967,0.01989699900150299,-0.05520310997962952
1785389256858880000,11.9998798828125,-0.022593997418880463,0.01899287849664688,-0.0553029403090477
1785389256878967000,12.019967041015626,-0.015916774049401283,0.011990229599177837,-0.058085158467292786
1785389256899055000,12.04005517578125,-0.021521862596273422,0.0360586903989315,-0.06807410717010498
1785389256919142000,12.060141845703125,-0.014177439734339714,-0.014411242678761482,-0.0725923478603363
1785389256939229000,12.08022900390625,-0.015223542228341103,0.00032201013527810574,-0.0799001157283783
1785389256959317000,12.10031689453125,-0.006054544821381569,-0.007781988941133022,-0.07885082811117172
1785389256979404000,12.120404052734376,-0.01788967475295067,0.03134533762931824,-0.07520648092031479
1785389256999491800,12.140491943359375,-0.008693034760653973,0.03203670680522919,-0.0757651999592781
1785389257019579000,12.160578857421875,-0.017683835700154305,0.07686271518468857,-0.0613965168595314
1785389257039667000,12.1806669921875,-0.014612382277846336,0.06935471296310425,-0.06933644413948059
1785389257059754000,12.20075390625,-0.023276129737496376,0.060189224779605865,-0.06454959511756897
1785389257079841800,12.220841796875,-0.0252574123442173,0.03140069916844368,-0.05390285328030586
1785389257099928800,12.2409287109375,-0.023591719567775726,-0.01458402443677187,-0.045492179691791534
1785389257120016000,12.261015869140625,-0.027007218450307846,-0.017505835741758347,-0.01654824987053871
1785389257140104000,12.28110400390625,-0.030440250411629677,-0.018479175865650177,0.007341185584664345
1785389257160190700,12.301190673828126,-0.0387958288192749,-0.0004899094346910715,0.016247065737843513
1785389257180278800,12.32127880859375,-0.04596418887376785,0.012056061998009682,0.008585618808865547
1785389257200365800,12.34136572265625,-0.0531134232878685,0.013923567719757557,0.01000211015343666
1785389257220454000,12.361453857421875,-0.053523506969213486,-0.0025423888582736254,0.005991576239466667
1785389257240541000,12.381541015625,-0.052230991423130035,-0.024034161120653152,0.015848306939005852
1785389257260629000,12.40162890625,-0.05820584297180176,-0.007856568321585655,0.021633408963680267
1785389257280716000,12.421716064453125,-0.056093163788318634,-0.03459784761071205,0.008467109873890877
1785389257300803000,12.441802978515625,-0.06864459812641144,-0.005237249191850424,0.001429524039849639
1785389257320891000,12.461890869140625,-0.05618039891123772,-0.005444832146167755,-0.023433443158864975
1785389257340978000,12.48197802734375,-0.06943271309137344,-0.016626136377453804,-0.038580745458602905
1785389257361066000,12.50206591796875,-0.08975712209939957,0.01791873574256897,-0.03873694688081741
1785389257381152800,12.52215283203125,-0.08035460859537125,-0.017153441905975342,-0.04286789894104004
1785389257401240800,12.54224072265625,-0.10019141435623169,-0.007577304728329182,-0.055742256343364716
1785389257421328000,12.562327880859375,-0.0851878747344017,-0.053915418684482574,-0.0638708621263504
1785389257441415000,12.582414794921876,-0.09428565204143524,-0.06882642209529877,-0.07612507045269012
1785389257461502700,12.602502685546876,-0.09239985793828964,-0.08944579213857651,-0.0745481476187706
1785389257481589800,12.62258984375,-0.086094930768013,-0.11260094493627548,-0.07251861691474915
1785389257501678000,12.642677978515625,-0.08353619277477264,-0.10765416920185089,-0.05310322716832161
1785389257521765000,12.66276513671875,-0.09303943812847137,-0.08931218087673187,-0.06237578019499779
1785389257541853000,12.68285302734375,-0.09485907852649689,-0.08022245764732361,-0.06275512278079987
1785389257561940000,12.70293994140625,-0.0956396535038948,-0.08877114206552505,-0.05280411243438721
1785389257582028000,12.723028076171875,-0.10077396780252457,-0.06714893877506256,-0.03405199572443962
1785389257602114800,12.74311474609375,-0.10335718095302582,-0.03873569145798683,-0.00822468288242817
1785389257622201900,12.763201904296874,-0.1110113337635994,0.11104463785886765,0.013832438737154007
1785389257642290000,12.7832900390625,-0.11336172372102737,0.03412655368447304,0.01428492832928896
1785389257662377000,12.803376953125,-0.11234406381845474,0.01647425815463066,0.014727688394486904
1785389257682464800,12.82346484375,-0.1145617738366127,0.04221788048744202,0.008607844822108746
1785389257702551800,12.8435517578125,-0.11390326172113419,0.04091571271419525,0.006130570080131292
1785389257722640000,12.863639892578124,-0.11007650196552277,0.03401157259941101,-0.0188278928399086
1785389257742727000,12.883726806640626,-0.10578783601522446,0.0410030260682106,-0.018220694735646248
1785389257762815000,12.90381494140625,-0.10114433616399765,0.053894419223070145,-0.02291402593255043
1785389257782902000,12.923902099609375,-0.09241467714309692,0.07303775101900101,-0.015002897940576077
1785389257802989000,12.943989013671874,-0.09036733210086823,0.07002855837345123,-0.032166607677936554
1785389257823076900,12.964076904296874,-0.09456576406955719,0.062038637697696686,-0.03821925073862076
1785389257843164000,12.984163818359375,-0.09452192485332489,0.03980514779686928,-0.037890780717134476
1785389257863252000,13.004251953125,-0.11602530628442764,0.08538045734167099,-0.03816729784011841
1785389257883339000,13.024339111328125,-0.1166432574391365,0.06138129159808159,-0.009245268069207668
1785389257903426800,13.0444267578125,-0.13127337396144867,0.05252431333065033,-0.007934380322694778
1785389257923513900,13.064513916015626,-0.12892888486385345,0.005511775612831116,-0.06235931068658829
1785389257943601000,13.084600830078125,-0.12435325235128403,-0.062149036675691605,-0.0769185721874237
1785389257963689000,13.10468896484375,-0.1152636706829071,-0.0718168318271637,-0.0623936653137207
1785389257983775700,13.124775634765625,-0.11031343787908554,-0.08280454576015472,-0.08923362195491791
1785389258003863800,13.14486376953125,-0.10862792283296585,-0.07238146662712097,-0.11018763482570648
1785389258023950800,13.164950927734376,-0.10447568446397781,-0.06808629631996155,-0.1372911036014557
1785389258044039000,13.185038818359375,-0.08885939419269562,-0.08510225266218185,-0.12819577753543854
1785389258064126000,13.2051259765625,-0.08491700887680054,-0.0891670510172844,-0.11312446743249893
1785389258084214000,13.225214111328125,-0.07463671267032623,-0.11276701837778091,-0.10613465309143066
1785389258104301000,13.245301025390624,-0.0801302045583725,0.12660902738571167,-0.06829530000686646
1785389258124388000,13.26538818359375,-0.07649918645620346,-0.06687017530202866,-0.06215273216366768
1785389258144476000,13.285475830078125,-0.07789202034473419,-0.029978206381201744,-0.042572639882564545
1785389258164563000,13.30556298828125,-0.07891669124364853,0.0029620875138789415,-0.022656867280602455
1785389258184651300,13.3256513671875,-0.07681769132614136,0.03161713480949402,-0.015612602233886719
1785389258204738000,13.345738037109374,-0.07595910876989365,0.02996380440890789,0.0017284518107771873
1785389258224826000,13.365826171875,-0.06691154092550278,0.024808553978800774,0.0027811559848487377
1785389258244913200,13.3859130859375,-0.05865113064646721,0.012489238753914833,-0.007743285037577152
1785389258265000200,13.406000244140625,-0.04933168366551399,-0.03189266845583916,-0.01785990223288536
1785389258285088000,13.426087890625,-0.0399276465177536,-0.04011237993836403,-0.01759200543165207
1785389258305175000,13.446175048828126,-0.03842068836092949,-0.02544434927403927,0.003559600096195936
1785389258325263400,13.466263427734376,-0.03270154446363449,-0.02162357047200203,-0.004953564144670963
1785389258345350100,13.48635009765625,-0.032240282744169235,-0.027836458757519722,-0.004498962312936783
1785389258365438200,13.506438232421875,-0.032412704080343246,-0.031867872923612595,0.015455981716513634
1785389258385525200,13.526525146484374,-0.03942851349711418,-0.014433657750487328,0.032431460916996
1785389258405613000,13.546613037109376,-0.03548971563577652,-0.02548805996775627,0.0536101870238781
1785389258425700000,13.5667001953125,-0.041839659214019775,-0.0007053925655782223,0.04773302376270294
1785389258445787100,13.586787109375,-0.035169050097465515,0.014977969229221344,0.05482720956206322
1785389258465875200,13.606875244140625,-0.03543515503406525,0.043657831847667694,0.0675845742225647
1785389258485962200,13.626962158203124,-0.02442183345556259,0.04940593242645264,0.09840358048677444
1785389258506050000,13.647050048828126,-0.022588228806853294,0.07114274799823761,0.0988197848200798
1785389258526137000,13.66713720703125,-0.012832392938435078,0.04758589342236519,0.09950046986341476
1785389258546225200,13.68722509765625,-0.003286600112915039,0.05444236844778061,0.0722617357969284
1785389258566312200,13.707312255859375,0.00365666626021266,0.024552037939429283,0.056164611130952835
1785389258586399000,13.72739892578125,0.009405747056007385,0.0009297209326177835,0.017128918319940567
1785389258606487000,13.747487060546876,0.004660901613533497,0.01269660983234644,-0.014715606346726418
1785389258626574000,13.767573974609375,0.002451180247589946,-0.00392506830394268,-0.0076682474464178085
1785389258646662100,13.787662109375,-0.00893181748688221,-0.0012828668113797903,0.015995148569345474
1785389258666749200,13.807749267578124,-0.012514090165495872,-0.02530643343925476,0.006570241879671812
1785389258686837200,13.827837158203126,-0.022626740857958794,-0.06280755996704102,0.030543852597475052
1785389258706924300,13.84792431640625,-0.030051253736019135,-0.0524282343685627,0.046147435903549194
1785389258727011300,13.86801123046875,-0.02840728498995304,-0.08865787833929062,0.0322052538394928
1785389258747099100,13.88809912109375,-0.03155220299959183,-0.10947240144014359,0.03586113825440407
1785389258767186200,13.908186279296874,-0.025200065225362778,-0.1006448045372963,0.04900754988193512
1785389258787274200,13.928274169921876,-0.018575703725218773,-0.11911686509847641,0.043290868401527405
1785389258807361000,13.948361083984375,-0.011198174208402634,-0.09983628243207932,0.04621147736907005
1785389258827449000,13.968448974609375,-0.013196761719882488,-0.06860120594501495,0.03922932595014572
1785389258847536000,13.9885361328125,-0.007256544195115566,-0.05412996932864189,0.020651666447520256
1785389258867624000,14.0086240234375,-0.004815405700355768,-0.003855372779071331,-0.002303720684722066
1785389258887711000,14.0287109375,0.0015211079735308886,-0.012783631682395935,-0.050307754427194595
1785389258907798000,14.048798095703125,0.000021766172721982002,-0.016406269744038582,-0.07206091284751892
1785389258927886300,14.06888623046875,0.006947394926100969,-0.026831716299057007,-0.09395413845777512
1785389258947973400,14.088973388671874,0.003653494641184807,0.018095245584845543,-0.09261862188577652
1785389258968061200,14.109061279296874,-0.005582002457231283,0.04451565816998482,-0.08929771184921265
1785389258988148200,14.129148193359375,-0.005440619308501482,0.041870128363370895,-0.07625368237495422
1785389259008236300,14.149236328125,-0.013403477147221565,0.050005342811346054,-0.057157114148139954
1785389259028323000,14.169322998046875,-0.011276282370090485,0.04834706336259842,-0.04373353347182274
1785389259048410000,14.18941015625,-0.009742435067892075,0.03328500688076019,-0.02017635479569435
1785389259068498200,14.209498291015626,0.0009065111516974866,0.0060967798344790936,-0.014954946003854275
1785389259088585200,14.229585205078125,0.006300228647887707,-0.01517835259437561,0.001962052658200264
1785389259108673000,14.249673095703125,-0.004421566147357225,0.01789962127804756,0.018487391993403435
1785389259128760000,14.269760009765625,-0.005127461161464453,0.015996236354112625,0.0359097495675087
1785389259148848000,14.28984814453125,-0.006495770066976547,0.007165468297898769,0.04132205620408058
1785389259168935200,14.30993505859375,-0.003985892049968243,-0.0123747568577528,0.0402076430618763
1785389259189023000,14.33002294921875,0.000535719795152545,-0.007393223699182272,0.035741157829761505
1785389259209110000,14.350110107421875,0.003737002843990922,-0.008995948359370232,0.024019191041588783
1785389259229197000,14.370197021484374,0.002154116751626134,0.006351939402520657,0.02177031710743904
1785389259249284900,14.390284912109376,0.0029907850548624992,0.015612725168466568,0.018715504556894302
1785389259269372000,14.410371826171875,0.0018364137504249811,0.00912604108452797,0.018576979637145996
1785389259289460000,14.4304599609375,0.003151822369545698,0.0039785015396773815,0.021593477576971054
1785389259309547000,14.450547119140625,0.0026616728864610195,-0.014624815434217453,0.023601585999131203
1785389259329634800,14.470634765625,0.007264353800565004,-0.025910159572958946,0.01896328292787075
1785389259349721900,14.490721923828126,0.010430961847305298,-0.02322278544306755,0.028990840539336205
1785389259369809000,14.510808837890625,0.008786537684500217,-0.020645618438720703,0.022151144221425056
1785389259389897000,14.53089697265625,0.008535129949450493,-0.016105404123663902,0.02386445924639702
1785389259409984000,14.55098388671875,0.010768371634185314,-0.020724095404148102,0.02592521719634533
1785389259430071800,14.57107177734375,0.005308328662067652,-0.0024696732871234417,0.03935221582651138
1785389259450158800,14.591158935546876,0.009898927994072437,-0.006576290354132652,0.04078841954469681
1785389259470247000,14.611246826171875,0.02024395391345024,-0.014373000711202621,0.051854267716407776
1785389259490334000,14.631333984375,0.018015218898653984,-0.007339983247220516,0.05894550681114197
1785389259510422000,14.651422119140625,0.021025827154517174,-0.004979447461664677,0.05143682286143303
1785389259530509000,14.671509033203124,0.021883631125092506,-0.008022109046578407,0.04674752801656723
1785389259550596000,14.69159619140625,0.01762869767844677,-0.006570420227944851,0.0400555357336998
1785389259570684000,14.711683837890625,0.015521369874477386,0.00038783508352935314,0.03760342299938202
1785389259590771000,14.73177099609375,0.012638619169592857,-0.01003484707325697,0.03509021922945976
1785389259610859000,14.75185888671875,0.014619454741477966,-0.030322283506393433,0.025678377598524094
1785389259630946000,14.771946044921876,0.01869235932826996,-0.028870342299342155,0.01949523761868477
1785389259651033900,14.792033935546876,0.020481834188103676,-0.02939675934612751,0.019166503101587296
1785389259671121000,14.812120849609375,0.019112134352326393,-0.006167761515825987,0.01938485912978649
1785389259691208000,14.8322080078125,0.01942802034318447,0.007331959903240204,0.03009558469057083
1785389259711295700,14.852295654296874,0.019674211740493774,0.008216051384806633,0.03549819067120552
1785389259731382800,14.8723828125,0.016379252076148987,0.010097749531269073,0.04094073176383972
1785389259751471000,14.89247119140625,0.012651721946895123,0.01824817806482315,0.040753938257694244
1785389259771558100,14.91255810546875,0.015638040378689766,0.026544645428657532,0.045333102345466614
1785389259791646000,14.93264599609375,0.0168131235986948,0.03667779639363289,0.044493839144706726
1785389259811733000,14.95273291015625,0.014030011370778084,0.06835158914327621,0.04780791699886322
1785389259831821000,14.972821044921876,0.013782513327896595,0.045667439699172974,0.047952260822057724
1785389259851908000,14.992908203125,0.015955640003085136,0.01600765995681286,0.04199044406414032
1785389259871995000,15.012994873046875,0.015836114063858986,-0.0016589051811024547,0.03656806796789169
1785389259892083000,15.0330830078125,0.015039731748402119,0.019803686067461967,0.01555875688791275
1785389259912170000,15.053169921875,0.01030447892844677,0.022667570039629936,0.004653234034776688
1785389259932257800,15.0732578125,0.012494887225329876,0.0283258855342865,-0.00584353506565094
1785389259952344800,15.0933447265625,0.014702478423714638,0.021302953362464905,-0.015214765444397926
1785389259972433000,15.113432861328125,0.012298472225666046,0.01092163473367691,-0.02147599682211876
1785389259992520000,15.13352001953125,0.014583252370357513,-0.016863668337464333,-0.018239213153719902
1785389260012607000,15.15360693359375,0.011862162500619888,-0.02316596545279026,-0.012764904648065567
1785389260032695000,15.173695068359375,0.011850178241729736,-0.033538177609443665,-0.017968986183404922
1785389260052781800,15.19378173828125,0.004071175120770931,-0.018452288582921028,-0.017726104706525803
1785389260072870100,15.2138701171875,0.006577954161912203,-0.03383949026465416,-0.011414392851293087
1785389260092957000,15.23395703125,0.0009242328233085573,-0.042467955499887466,-0.006238704081624746
1785389260113045000,15.254044921875,0.002952120965346694,-0.06479933857917786,0.004294405225664377
1785389260133132000,15.274132080078125,0.005652614403516054,-0.07380717247724533,-0.001475250581279397
1785389260153219000,15.294218994140625,0.005423594731837511,-0.05411586910486221,0.014375145547091961
1785389260173306400,15.314306396484374,0.01683017425239086,-0.06057637557387352,0.0187982264906168
1785389260193393400,15.334393310546876,0.015840325504541397,-0.04932340979576111,0.017770595848560333
1785389260213481500,15.3544814453125,0.021706433966755867,-0.06190034747123718,0.013313505798578262
1785389260233568500,15.374568603515625,0.021245187148451805,-0.02677416428923607,0.00881628505885601
1785389260253656300,15.39465625,0.019435685127973557,0.0020307390950620174,0.015125279314815998
1785389260273743400,15.414743408203124,0.0230550579726696,-0.00006574043072760105,0.014338290318846703
1785389260293831400,15.43483154296875,0.025148466229438782,0.0002876266371458769,0.011175991035997868
1785389260313918500,15.45491845703125,0.02542097494006157,0.004106472712010145,0.009039109572768211
1785389260334005200,15.475005126953125,0.022569039836525917,0.02312980219721794,0.002600038191303611
1785389260354093300,15.49509326171875,0.014898051507771015,0.05480295047163963,0.011631393805146217
1785389260374180400,15.515180419921874,0.013787784613668919,0.05408144369721413,0.02390606515109539
1785389260394268400,15.535268310546876,0.014544177800416946,0.07162180542945862,0.023455172777175903
1785389260414355200,15.555355224609375,0.013575470075011253,0.04223177582025528,0.030338790267705917
1785389260434442200,15.575442138671875,0.01586078479886055,0.028690654784440994,0.03238993510603905
1785389260454530600,15.595530517578124,0.014917225576937199,0.008247431367635727,0.025233488529920578
1785389260474617600,15.61561767578125,0.01355208270251751,-0.0031535052694380283,0.02140876092016697
1785389260494705400,15.635705322265625,0.010169360786676407,0.005030427128076553,0.024375641718506813
1785389260514792400,15.65579248046875,0.011291434057056904,0.011395321227610111,0.01654685288667679
1785389260534880500,15.675880615234375,0.011483830399811268,0.016367364674806595,0.020788589492440224
1785389260554967300,15.69596728515625,0.008792856708168983,-0.015642421320080757,0.019646771252155304
1785389260575055400,15.716055419921876,0.016354801133275032,-0.046106353402137756,0.019261617213487625
1785389260595142400,15.736142333984375,0.018835371360182762,-0.044461820274591446,0.022407671436667442
1785389260615229400,15.7562294921875,0.016211800277233124,-0.059379130601882935,0.029335616156458855
1785389260635317200,15.776317138671875,0.010570269078016281,-0.025973526760935783,0.025433510541915894
1785389260655404300,15.796404296875,0.004888596013188362,-0.004215472377836704,0.024083824828267097
1785389260675492400,15.816492431640626,0.007982566021382809,-0.04681793972849846,0.013853555545210838
1785389260695579400,15.836579345703125,0.01717313565313816,-0.07486581802368164,0.020209722220897675
1785389260715667500,15.85666748046875,0.021816443651914597,-0.04849256947636604,0.022173000499606133
1785389260735754500,15.87675439453125,0.011689625680446625,0.016113420948386192,0.02296275645494461
1785389260755841500,15.896841552734376,0.028195248916745186,-0.05017897114157677,0.0046571302227675915
1785389260775929300,15.916929443359376,0.018925664946436882,-0.023837082087993622,0.001798591809347272
1785389260796016400,15.937016357421875,0.028326453641057014,-0.00483986409381032,0.016464252024888992
1785389260816104400,15.9571044921875,0.01583505980670452,0.03601032868027687,0.016556601971387863
1785389260836191500,15.97719140625,0.019049277529120445,0.02607172355055809,0.017388656735420227
1785389260856279300,15.997279296875,0.025760237127542496,-0.055773939937353134,0.0019834772683680058
1785389260876366300,16.017366455078125,0.027990151196718216,-0.0675613135099411,-0.0012370008043944836
1785389260896454400,16.037454345703125,0.020675770938396454,-0.020097868517041206,0.0023091016337275505
1785389260916541400,16.05754150390625,0.0169431883841753,0.0018215798772871494,-0.0006288357544690371
1785389260936628200,16.077628173828124,0.011020209640264511,-0.010014550760388374,-0.0003643424715846777
1785389260956716300,16.09771630859375,0.015270130708813667,-0.021018952131271362,-0.005933729000389576
1785389260976803300,16.11780322265625,0.015115037560462952,0.002411447698250413,0.012204629369080067
1785389260996891400,16.137891357421875,0.011146134696900845,0.014255799353122711,0.010621543973684311
1785389261016978400,16.157978515625,0.009554896503686905,0.03657468780875206,0.008038809522986412
1785389261037066500,16.17806640625,0.007556841243058443,0.04907548800110817,0.00524767255410552
1785389261057153500,16.198153564453126,0.012756203301250935,0.02724027819931507,0.015604485757648945
1785389261077240600,16.218240478515625,0.012160000391304493,0.03613286837935448,0.016785429790616035
1785389261097328400,16.238328369140625,0.014217231422662735,0.0402698889374733,0.025014720857143402
1785389261117415400,16.25841552734375,0.014954667538404465,0.03017565608024597,0.031029101461172104
1785389261137503500,16.27850341796875,0.016546806320548058,0.029795389622449875,0.02261091209948063
1785389261157590300,16.29859033203125,0.010494561865925789,0.05475292727351189,0.02334991842508316
1785389261177678800,16.318678955078123,0.005529909394681454,0.048810236155986786,0.019233262166380882
1785389261197766000,16.338765869140627,0.0011552986688911915,0.02557332254946232,0.013931379653513432
1785389261217853000,16.35885302734375,0.002895443933084607,0.0171967726200819,0.00994358491152525
1785389261237941000,16.37894091796875,0.002701511373743415,0.0005930413026362658,-0.00031009665690362453
1785389261258028000,16.399028076171874,0.003038891591131687,-0.011597148142755032,0.0031108141411095858
1785389261278116000,16.4191162109375,0.005497964099049568,-0.0212776567786932,0.0008509636390954256
1785389261298203000,16.439202880859376,-0.0009579804609529674,-0.0016201476100832224,-0.0025888830423355103
1785389261318291000,16.459291015625,-0.003156238468363881,0.01896478235721588,-0.0029047296848148108
1785389261338378000,16.4793779296875,-0.003364110365509987,0.0043590739369392395,-0.001534248236566782
1785389261358465800,16.4994658203125,-0.006308234762400389,-0.0007083893287926912,-0.00032783648930490017
1785389261378552800,16.519552734375,-0.008013498969376087,0.0009040532168000937,0.005785529501736164
1785389261398639900,16.539639892578126,-0.009204707108438015,0.008924964815378189,0.016089795157313347
1785389261418728000,16.55972802734375,-0.01025946345180273,0.015608565881848335,0.025682255625724792
1785389261438815000,16.57981494140625,-0.00812414102256298,0.012625027447938919,0.016384359449148178
1785389261458902800,16.59990283203125,-0.00021757336799055338,0.029015038162469864,0.01765415258705616
1785389261478989800,16.61998974609375,0.0020700092427432537,-0.023137729614973068,0.01161523349583149
1785389261499078100,16.640078125,0.0029861971270292997,-0.027090195566415787,0.017637580633163452
1785389261519165000,16.6601650390625,-0.001566597493365407,-0.009151540696620941,0.017729708924889565
1785389261539253000,16.6802529296875,-0.0016004984499886632,0.011719660833477974,0.010831113904714584
1785389261559340000,16.700340087890623,-0.0007296629482880235,0.0029252723325043917,0.0026970645412802696
1785389261579427000,16.720427001953126,-0.0037180446088314056,0.005199034698307514,-0.0030293469317257404
1785389261599515000,16.740514892578126,-0.005215030629187822,0.0065007442608475685,-0.009866866283118725
1785389261619602000,16.760601806640626,-0.0030845508445054293,-0.0064145661890506744,-0.01028080377727747
1785389261639690000,16.78068994140625,-0.002530026249587536,0.015980476513504982,-0.012573273852467537
1785389261659777000,16.800777099609373,-0.001930312835611403,0.020573949441313744,-0.0032241069711744785
1785389261679864800,16.82086474609375,-0.00303803663700819,0.020488277077674866,-0.0006271142046898603
1785389261699951900,16.840951904296876,-0.0056037865579128265,0.030408350750803947,0.00638777669519186
1785389261720040000,16.8610400390625,-0.004861224442720413,0.03293231502175331,0.010545439086854458
1785389261740127000,16.881126953125,-0.0026103206910192966,0.038604315370321274,0.011500181630253792
1785389261760213800,16.9012138671875,0.0015551717951893806,0.0350903756916523,0.015283654443919659
1785389261780302000,16.921302001953126,0.0005087128956802189,0.02678580954670906,0.01110535953193903
1785389261800389000,16.94138916015625,-0.0025206622667610645,0.029487598687410355,0.011145290918648243
1785389261820477000,16.961476806640626,-0.0025278839748352766,0.04004042595624924,0.00512881763279438
1785389261840564000,16.98156396484375,-0.006140734069049358,0.029714876785874367,-0.0011127297766506672
1785389261860652000,17.001652099609377,-0.008548764511942863,0.02689911611378193,0.01116284541785717
1785389261880739000,17.021739013671876,-0.005038221832364798,0.019151289016008377,0.01724548265337944
1785389261900827000,17.041826904296876,-0.0028347887564450502,0.011740102432668209,0.017640922218561172
1785389261920914000,17.061913818359375,-0.002887797774747014,0.008793160319328308,0.012101220898330212
1785389261941001000,17.0820009765625,-0.0032669170759618282,0.019037464633584023,0.0012007583864033222
1785389261961088800,17.1020888671875,-0.0015479434514418244,0.024528279900550842,-0.013079277239739895
1785389261981175800,17.12217578125,0.0007997844368219376,0.011758767068386078,-0.012023987248539925
1785389262001263900,17.142263916015626,-0.0009561950573697686,0.012317742221057415,-0.01552821695804596
1785389262021351000,17.162350830078125,-0.004232433624565601,0.02943594940006733,-0.020898014307022095
1785389262041439000,17.18243896484375,-0.001237049582414329,0.027587488293647766,-0.03073916956782341
1785389262061525800,17.20252587890625,-0.004838121589273214,0.023859582841396332,-0.025539100170135498
1785389262081614000,17.222614013671876,-0.005378882400691509,0.027670374140143394,-0.022801190614700317
1785389262101701000,17.242701171875,-0.0006954473210498691,0.011928696185350418,-0.02124430611729622
1785389262121788000,17.262787841796875,-0.0027393021155148745,0.015911545604467392,-0.02375979907810688
1785389262141876000,17.2828759765625,0.00019695964874699712,0.01039807964116335,-0.01515547651797533
1785389262161963000,17.302962890625,0.0029086992144584656,0.0030597171280533075,-0.011006313376128674
1785389262182050800,17.32305078125,0.0035160998813807964,0.015839552506804466,-0.012672425247728825
1785389262202137900,17.343137939453126,0.007528278976678848,0.02838284894824028,-0.006650570780038834
1785389262222226000,17.363225830078125,0.009546023793518543,0.04315435513854027,-0.006783384829759598
1785389262242313000,17.38331298828125,0.01257564127445221,0.04689520224928856,-0.01229079533368349
1785389262262401000,17.403401123046876,0.014225705526769161,0.05414331704378128,-0.012595054693520069
1785389262282488000,17.423488037109376,0.02037455141544342,0.05762505903840065,-0.009883338585495949
1785389262302576000,17.443576171875,0.022682562470436096,0.05767983943223953,-0.025686681270599365
1785389262322663200,17.4636630859375,0.026844356209039688,0.05699602887034416,-0.017425887286663055
1785389262342750000,17.48375,0.03357382118701935,0.05564204603433609,-0.01919965073466301
1785389262362838000,17.503838134765626,0.03272439166903496,0.07071726769208908,-0.021775174885988235
1785389262382925000,17.523925048828126,0.03862791135907173,0.07510683685541153,-0.014015253633260727
1785389262403012900,17.544012939453125,0.037954747676849365,0.09268952906131744,-0.01236489787697792
1785389262423100000,17.564099853515625,0.04350019618868828,0.08396822214126587,-0.013025341555476189
1785389262443188000,17.58418798828125,0.045145370066165924,0.07322335988283157,-0.01362633053213358
1785389262463275000,17.60427490234375,0.04979315772652626,0.061876263469457626,-0.012068196199834347
1785389262483362800,17.62436279296875,0.05233624204993248,0.06241154670715332,-0.019219832494854927
1785389262503449900,17.644449951171875,0.05562135949730873,0.0580575205385685,-0.010353146120905876
1785389262523537000,17.664536865234375,0.061796098947525024,0.0447213314473629,-0.004195157438516617
1785389262543625200,17.684625244140626,0.06628952920436859,0.043330173939466476,0.0032349403481930494
1785389262563712000,17.7047119140625,0.06935328245162964,0.033519987016916275,0.009540426544845104
1785389262583800000,17.724800048828126,0.07381585240364075,0.030035097151994705,0.021802416071295738
1785389262603887000,17.74488720703125,0.07838735729455948,0.017498979344964027,0.028125092387199402
1785389262623975000,17.764974853515625,0.08534993976354599,-0.0008588354103267193,0.03024050034582615
1785389262644062000,17.78506201171875,0.08899163454771042,-0.004548289347440004,0.018710244446992874
1785389262664150000,17.80514990234375,0.0938645526766777,-0.0159998070448637,0.008146462962031364
1785389262684237000,17.825237060546876,0.09148944914340973,-0.016214758157730103,-0.0016084909439086914
1785389262704324000,17.845323974609375,0.09207350760698318,-0.033935483545064926,0.0019078069599345326
1785389262724412000,17.865411865234375,0.093466617166996,-0.05215534567832947,0.01330246776342392
1785389262744499000,17.8854990234375,0.09596923738718033,-0.0570528544485569,0.01760195754468441
1785389262764587000,17.9055869140625,0.10075320303440094,-0.06113886833190918,0.02462063357234001
1785389262784674000,17.925674072265625,0.10344811528921127,-0.05253398418426514,0.02994305081665516
1785389262804762000,17.94576220703125,0.09928657859563828,-0.042155954986810684,0.05082032456994057
1785389262824849200,17.96584912109375,0.09920370578765869,-0.029761113226413727,0.068253293633461
1785389262844937000,17.98593701171875,0.10011711716651917,-0.01764605939388275,0.06959910690784454
1785389262865024000,18.00602392578125,0.09551641345024109,-0.011364076286554337,0.07435072213411331
1785389262885111000,18.026111083984375,0.09749048203229904,-0.0006491888780146837,0.0827818438410759
1785389262905199000,18.04619921875,0.10165835916996002,0.0061200750060379505,0.08516522496938705
1785389262925286100,18.0662861328125,0.10187380015850067,0.021508142352104187,0.07096002995967865
1785389262945374000,18.0863740234375,0.09677215665578842,0.0379926934838295,0.0670827254652977
1785389262965461000,18.1064609375,0.09411335736513138,0.05580853670835495,0.05384911224246025
1785389262985549000,18.126549072265625,0.09054801613092422,0.062118664383888245,0.04251156747341156
1785389263005636000,18.146635986328125,0.08893881738185883,0.07023265212774277,0.04203404113650322
1785389263025724000,18.166723876953125,0.09103328734636307,0.06336959451436996,0.03174528479576111
1785389263045811000,18.18681103515625,0.08185602724552155,0.07663890719413757,0.024979732930660248
1785389263065898000,18.20689794921875,0.09039705991744995,0.05554262176156044,0.016762446612119675
1785389263085986000,18.226986083984375,0.07747052609920502,0.053478941321372986,0.01573159359395504
1785389263106072800,18.24707275390625,0.07967521995306015,0.052255257964134216,0.01910451240837574
1785389263126161200,18.2671611328125,0.07772509008646011,0.05404467135667801,0.026350237429142
1785389263146248200,18.287248291015626,0.06900946795940399,0.05821334943175316,0.026071464642882347
1785389263166336000,18.3073359375,0.07405765354633331,0.012296957895159721,0.0389547124505043
1785389263186422500,18.327422607421877,0.06072177737951279,0.007279417011886835,0.04529969021677971
1785389263206510600,18.347510498046876,0.06549648940563202,-0.030469167977571487,0.04940837621688843
1785389263226597600,18.36759765625,0.054383013397455215,-0.02133983001112938,0.0623583048582077
1785389263246684700,18.3876845703125,0.06039762496948242,-0.056141678243875504,0.07571211457252502
1785389263266772500,18.4077724609375,0.04640067368745804,-0.039003025740385056,0.06977299600839615
1785389263286859500,18.427859619140627,0.0629149079322815,-0.09392481297254562,0.07167090475559235
1785389263306947600,18.447947509765626,0.04970922693610191,-0.09463195502758026,0.04657389223575592
1785389263327034400,18.468034423828126,0.060893602669239044,-0.11935011297464371,0.030180208384990692
1785389263347122400,18.488122314453125,0.05697273463010788,-0.10916482657194138,0.01410836074501276
1785389263367209500,18.50820947265625,0.04923374950885773,-0.07544710487127304,0.0041504730470478535
1785389263387296500,18.528296630859376,0.04969261959195137,-0.06861855089664459,0.0017742973286658525
1785389263407384600,18.548384521484376,0.03816809132695198,-0.02375718206167221,0.005070781335234642
1785389263427471600,18.5684716796875,0.03796272724866867,-0.03034466877579689,0.012357698753476143
1785389263447559700,18.5885595703125,0.031865157186985016,-0.006856709718704224,0.022877348586916924
1785389263467646700,18.608646728515627,0.030925903469324112,-0.021168436855077744,0.03366919606924057
1785389263487734500,18.628734619140626,0.023865852504968643,-0.004193068481981754,0.03647956997156143
1785389263507821600,18.648821533203126,0.02748255245387554,-0.023761101067066193,0.041153330355882645
1785389263527909600,18.66890966796875,0.027196848765015602,-0.018869685009121895,0.04379889741539955
1785389263547996400,18.688996337890625,0.029306642711162567,0.006044876761734486,0.03705712780356407
1785389263568083500,18.70908349609375,0.029206272214651108,0.03676575422286987,0.04026652127504349
1785389263588171500,18.729171630859376,0.02673988789319992,0.03559717535972595,0.03624832257628441
1785389263608258600,18.749258544921876,0.02706916816532612,0.039506349712610245,0.029020095244050026
1785389263628346400,18.769346435546876,0.018657848238945007,0.04884946346282959,0.004719179589301348
1785389263648433400,18.789433349609375,0.015183741226792336,0.04389183595776558,-0.011351991444826126
1785389263668521500,18.809521484375,0.012930919416248798,0.028656700626015663,-0.011701111681759357
1785389263688608500,18.8296083984375,0.01290674414485693,0.01027230080217123,-0.01704113930463791
1785389263708696600,18.849696533203126,0.006658429745584726,0.00022371718659996986,-0.015859659761190414
1785389263728783600,18.86978369140625,0.009843358770012856,-0.016214922070503235,-0.010011909529566765
1785389263748870700,18.88987060546875,0.0069764177314937115,-0.020600128918886185,-0.0038299965672194958
1785389263768958500,18.90995849609375,0.01475727278739214,-0.03100566565990448,0.011536380276083946
1785389263789045500,18.93004541015625,0.011572773568332195,-0.025448469445109367,0.016355596482753754
1785389263809133600,18.950133544921876,0.013677893206477165,-0.030678629875183105,0.010664727538824081
1785389263829220600,18.970220703125,0.01282359380275011,-0.037819262593984604,0.011799952946603298
1785389263849308400,18.990308349609375,0.005924517288804054,-0.04117247089743614,0.009170839563012123
1785389263869395500,19.0103955078125,0.003163031069561839,-0.03636545315384865,0.02544703707098961
1785389263889482500,19.030482421875,0.0009430928621441126,-0.02913408726453781,0.020548619329929352
1785389263909570600,19.050570556640626,-0.0001047036494128406,-0.046247269958257675,0.02930167131125927
1785389263929657300,19.0706572265625,-0.0033559452276676893,-0.044596098363399506,0.02821618691086769
1785389263949745400,19.090745361328125,-0.0047542741522192955,-0.04104495048522949,0.029312510043382645
1785389263969832400,19.11083251953125,-0.0040149749256670475,-0.04723019897937775,0.023172754794359207
1785389263989920500,19.13092041015625,-0.006711297668516636,-0.03167060762643814,0.019653303548693657
1785389264010007600,19.151007568359375,-0.0010813999688252807,-0.0318746417760849,0.0213546771556139
1785389264030095600,19.171095703125,-0.0018993112025782466,-0.01229081116616726,0.01773279905319214
1785389264050182700,19.1911826171875,-0.00011200936569366604,-0.007502458523958921,0.008097994141280651
1785389264070269700,19.211269775390626,-0.0025586492847651243,0.010266894474625587,0.014072958379983902
1785389264090357500,19.231357421875,0.002740278374403715,0.008760767988860607,0.024190064519643784
1785389264110444500,19.251444580078125,-0.00487389275804162,0.018067803233861923,0.025953810662031174
1785389264130532600,19.27153271484375,0.00010759860015241429,0.009939348325133324,0.026899050921201706
1785389264150619400,19.291619384765625,-0.006002485752105713,0.01855674758553505,0.0363939143717289
1785389264170707500,19.31170751953125,-0.006815500557422638,0.01874081790447235,0.03997594863176346
1785389264190794200,19.331794189453124,-0.009553877636790276,0.0043909866362810135,0.034297168254852295
1785389264210881300,19.35188134765625,-0.011358319781720638,0.009092452004551888,0.0344107411801815
1785389264230969000,19.371968994140627,-0.005237535107880831,-0.006834480911493301,0.028200702741742134
1785389264251056000,19.39205615234375,-0.0109172398224473,0.011323314160108566,0.02836897037923336
1785389264271144200,19.412144287109374,-0.00826161541044712,0.01705493964254856,0.02661171928048134
1785389264291231200,19.432231201171874,-0.010901055298745632,0.01826224848628044,0.028888411819934845
1785389264311319000,19.452319091796873,-0.01180271152406931,0.013810654170811176,0.028396528214216232
1785389264331406000,19.472406005859376,-0.015497665852308273,0.002978043630719185,0.019546205177903175
1785389264351494100,19.492494140625,-0.017259467393159866,-0.03175237029790878,-0.0017599011771380901
1785389264371581200,19.512581298828124,-0.019600749015808105,-0.03913607448339462,-0.011098707094788551
1785389264391668000,19.53266796875,-0.023421315476298332,-0.04755837842822075,-0.0013321994338184595
1785389264411756300,19.55275634765625,-0.022862540557980537,-0.04711991921067238,0.02021748758852482
1785389264431843300,19.57284326171875,-0.027530640363693237,-0.035497862845659256,0.015597210265696049
1785389264451931100,19.59293115234375,-0.021539894863963127,-0.0308553334325552,0.005835103802382946
1785389264472018200,19.61301806640625,-0.02602798491716385,-0.03451213613152504,-0.0029009415302425623
1785389264492106200,19.633106201171874,-0.026139790192246437,-0.03398105874657631,-0.009098833426833153
1785389264512193300,19.653193359375,-0.024429453536868095,-0.025553761050105095,-0.010799548588693142
1785389264532280300,19.6732802734375,-0.023924754932522774,-0.02905982919037342,0.004586613737046719
1785389264552368000,19.6933681640625,-0.027043376117944717,-0.037168022245168686,0.0167885422706604
1785389264572455200,19.713455078125,-0.026622936129570007,-0.0439772792160511,0.01700405776500702
1785389264592543200,19.733543212890623,-0.024274244904518127,-0.041059739887714386,0.012511919252574444
1785389264612630000,19.753630126953126,-0.026177698746323586,-0.02248806692659855,0.017963141202926636
1785389264632718000,19.773718017578126,-0.020755549892783165,-0.019753843545913696,0.04054639860987663
1785389264652805000,19.79380517578125,-0.02385057881474495,-0.005600383505225182,0.03872975707054138
1785389264672893200,19.81389306640625,-0.021900879219174385,-0.002073293086141348,0.032669201493263245
1785389264692980200,19.833980224609373,-0.021423906087875366,-0.017881818115711212,0.025332989171147346
1785389264713067300,19.8540673828125,-0.023753676563501358,-0.026715189218521118,0.021830487996339798
1785389264733155300,19.8741552734375,-0.025773758068680763,-0.020653877407312393,0.015524342656135559
1785389264753242400,19.894242431640624,-0.028528736904263496,-0.02025420591235161,0.012779565528035164
1785389264773330200,19.914330078125,-0.03028775379061699,-0.029212547466158867,0.025105208158493042
1785389264793417200,19.934417236328127,-0.030144870281219482,-0.04891682043671608,0.03807994723320007
1785389264813505300,19.95450537109375,-0.03155679255723953,-0.04442755505442619,0.05072756111621857
1785389264833592000,19.974592041015626,-0.022171378135681152,-0.056344758719205856,0.034717801958322525
1785389264853679000,19.99467919921875,-0.028874831274151802,-0.05920061841607094,0.017839159816503525
1785389264873767200,20.01476708984375,-0.02548990584909916,-0.06839700043201447,0.0005092546343803406
1785389264893854200,20.034854248046877,-0.024433927610516548,-0.06708364188671112,-0.011276807636022568
1785389264913942000,20.05494189453125,-0.032083675265312195,-0.05228918418288231,-0.02088985964655876
1785389264934029000,20.075029052734376,-0.02630210481584072,-0.060480616986751556,-0.01925375685095787
1785389264954117400,20.095117431640624,-0.030541609972715378,-0.048543091863393784,-0.027647998183965683
1785389264974204400,20.115204345703123,-0.02933194674551487,-0.049958840012550354,-0.03220122680068016
1785389264994291200,20.135291259765626,-0.0256387647241354,-0.06156131625175476,-0.02811274118721485
1785389265014379300,20.155379150390626,-0.023583464324474335,-0.059717681258916855,-0.035625435411930084
1785389265034466300,20.17546630859375,-0.01945175789296627,-0.07027415186166763,-0.028709638863801956
1785389265054554000,20.19555419921875,-0.018741080537438393,-0.06673227995634079,-0.0209494736045599
1785389265074641200,20.21564111328125,-0.015939634293317795,-0.05460730195045471,-0.003824775805696845
1785389265094729200,20.235729248046876,-0.017025206238031387,-0.025740373879671097,-0.0075332666747272015
1785389265114816300,20.255816162109376,-0.019900724291801453,-0.022608529776334763,-0.01305193081498146
1785389265134904000,20.275904052734376,-0.022091932594776154,-0.028830107301473618,-0.0225088968873024
1785389265154991000,20.2959912109375,-0.01764860935509205,-0.03399847075343132,-0.03139233961701393
1785389265175078100,20.316078125,-0.02020285278558731,-0.03332463279366493,-0.0261860229074955
1785389265195166500,20.33616650390625,-0.018016798421740532,-0.03460000455379486,-0.013801182620227337
1785389265215253500,20.35625341796875,-0.015559395775198936,-0.02518649399280548,0.012164434418082237
1785389265235341600,20.376341552734374,-0.01651798188686371,-0.017956197261810303,0.0074923294596374035
1785389265255428600,20.3964287109375,-0.014862126670777798,-0.016749344766139984,0.009006436914205551
1785389265275516700,20.4165166015625,-0.011336312629282475,-0.015022030100226402,0.012698357924818993
1785389265295603700,20.436603759765624,-0.012444903142750263,-0.0017787248361855745,0.019360892474651337
1785389265315690800,20.456690673828124,-0.011330726556479931,0.0016520784702152014,0.042388979345560074
1785389265335778800,20.47677880859375,-0.00952170230448246,0.010473600588738918,0.05280312895774841
1785389265355865600,20.496865478515623,-0.00813982356339693,0.017446130514144897,0.05620076507329941
1785389265375953700,20.51695361328125,-0.008069043979048729,0.011581385508179665,0.0495123565196991
1785389265396040700,20.537040771484374,-0.010491099208593369,-0.002048791851848364,0.04170876741409302
1785389265416128500,20.55712841796875,-0.010564062744379044,0.003862303914502263,0.029033083468675613
1785389265436215600,20.577215576171874,-0.014180508442223072,0.002816020045429468,0.028359483927488327
1785389265456302600,20.597302490234377,-0.007481011562049389,-0.01482444629073143,0.029501264914870262
1785389265476390700,20.617390625,-0.006018416490405798,-0.004340532701462507,0.0032405720558017492
1785389265496477700,20.637477783203124,-0.005406640004366636,0.014746921136975288,-0.014306647703051567
1785389265516565500,20.6575654296875,-0.005984061397612095,0.016462218016386032,-0.01711103692650795
1785389265536652500,20.677652587890623,-0.002213115803897381,0.004986774642020464,-0.03391106054186821
1785389265556740900,20.697740966796875,-0.002649408532306552,0.003128546290099621,-0.03545093908905983
1785389265576827600,20.71782763671875,-0.0033919524867087603,0.020958421751856804,-0.018118534237146378
1785389265596915700,20.737915771484374,-0.0037084450013935566,0.009733485989272594,-0.017473742365837097
1785389265617002800,20.758002685546874,-0.002608861541375518,0.0024461187422275543,-0.015328587032854557
1785389265637089800,20.77808984375,-0.0017861268715932965,-0.02073010243475437,-0.023326752707362175
1785389265657177600,20.798177490234377,0.0008482906850986183,-0.03794920817017555,-0.027697842568159103
1785389265677264600,20.8182646484375,0.0030366338323801756,-0.029081139713525772,-0.019002659246325493
1785389265697352700,20.838352783203124,0.0063617052510380745,-0.034720730036497116,-0.022814320400357246
1785389265717439700,20.858439697265624,0.006654986180365086,-0.03233279660344124,-0.008823896758258343
1785389265737527600,20.878527587890623,0.004698361735790968,-0.02656998485326767,-0.003956170752644539
1785389265757614600,20.898614501953126,0.0105612026527524,-0.04523365944623947,-0.0034429384395480156
1785389265777701600,20.91870166015625,0.009211922995746136,-0.04280552268028259,-0.00012332643382251263
1785389265797789700,20.938789794921874,0.019443316385149956,-0.051694951951503754,-0.009005891159176826
1785389265817876500,20.95887646484375,0.01607227325439453,-0.028308290988206863,-0.01005097571760416
1785389265837964500,20.978964599609377,0.01942039467394352,-0.023531856015324593,0.007913746871054173
1785389265858051600,20.999051513671876,0.023488862439990044,-0.019352391362190247,0.013916060328483582
1785389265878139600,21.0191396484375,0.020998287945985794,-0.015780407935380936,0.021164443343877792
1785389265898226700,21.039226806640624,0.01848325878381729,-0.006386174820363522,0.003901977092027664
1785389265918313700,21.059313720703123,0.01284751296043396,-0.0023065858986228704,-0.02519197016954422
1785389265938401800,21.07940185546875,0.014021932147443295,-0.028461916372179985,-0.056749917566776276
1785389265958488600,21.099488525390626,0.012678318656980991,-0.053123634308576584,-0.05509724095463753
1785389265978576600,21.11957666015625,-0.0011936640366911888,-0.019628234207630157,-0.07003993541002274
1785389265998663700,21.13966357421875,-0.010212259367108345,-0.020277120172977448,-0.055290587246418
1785389266018751700,21.159751708984373,0.012690925970673561,-0.048855237662792206,-0.04400171339511871
1785389266038838500,21.179838623046876,-0.0026358074974268675,-0.03516122326254845,-0.060386691242456436
1785389266058925600,21.199925537109376,0.017183715477585793,-0.0635189488530159,-0.05060989782214165
1785389266079013600,21.220013671875,0.0032513763289898634,-0.03482300043106079,-0.055748529732227325
1785389266099100700,21.2401005859375,0.013330386951565742,-0.060007866472005844,-0.04391886293888092
1785389266119188500,21.2601884765625,0.007355294656008482,-0.04555835574865341,-0.032798536121845245
1785389266139275500,21.280275634765626,0.011737308464944363,-0.040035445243120193,-0.028300104662775993
1785389266159363800,21.30036376953125,0.0105801522731781,-0.03809628635644913,-0.009208496659994125
1785389266179450000,21.3204501953125,0.010943783447146416,-0.03792906180024147,-0.004722708836197853
1785389266199537200,21.340537109375,0.013857239857316017,-0.03372802957892418,0.0044980342499911785
1785389266219625200,21.360625244140625,0.01412611547857523,-0.020660730078816414,-0.0038872570730745792
1785389266239712300,21.380712158203124,0.012801616452634335,-0.02045644074678421,0.0007690552156418562
1785389266259800300,21.40080029296875,0.015697695314884186,-0.012239236384630203,0.004003772046416998
1785389266279887000,21.42088720703125,0.015830187126994133,0.0018171761184930801,0.007224254310131073
1785389266299975200,21.44097509765625,0.013845817185938358,-0.0012239324860274792,-0.005477774888277054
1785389266320062200,21.461062255859375,0.016179509460926056,0.0051480550318956375,0.002066671149805188
1785389266340150000,21.48114990234375,0.01768563501536846,0.0058282045647501945,-0.000478286761790514
1785389266360237000,21.501237060546874,0.01589059829711914,0.015267902053892612,0.006366530433297157
1785389266380324000,21.521323974609373,0.017895814031362534,0.021345634013414383,0.0061495015397667885
1785389266400412200,21.541412109375,0.022235337644815445,0.01165429875254631,0.004099501296877861
1785389266420499200,21.561499267578125,0.02244521863758564,0.0078158900141716,0.0034754856023937464
1785389266440587000,21.5815869140625,0.020005829632282257,0.022400567308068275,0.0022235726937651634
1785389266460674000,21.601674072265624,0.027615437284111977,0.009634461253881454,-0.001137561397626996
1785389266480762400,21.621762451171875,0.026562435552477837,0.015455751679837704,0.008974786847829819
1785389266500849200,21.64184912109375,0.028177982196211815,0.013778009451925755,-0.0008722047787159681
1785389266520936200,21.661936279296874,0.0272653941065073,0.014060601592063904,0.0046390388160943985
1785389266541024300,21.682024169921874,0.029946208000183105,0.010357559658586979,-0.001323043368756771
1785389266561111300,21.702111328125,0.029498044401407242,0.00568082882091403,-0.011828065849840641
1785389266581199000,21.72219921875,0.03364494815468788,0.0012709912844002247,-0.002843727357685566
1785389266601286100,21.7422861328125,0.03951418772339821,0.008233792148530483,-0.006761299446225166
1785389266621374200,21.762374267578124,0.03541610762476921,0.010410450398921967,0.001445335103198886
1785389266641461200,21.782461181640624,0.035068511962890625,0.0012867380864918232,-0.015337352640926838
1785389266661548000,21.802548095703123,0.03814030438661575,-0.00879755336791277,-0.03585987910628319
1785389266681636000,21.822635986328127,0.03576236218214035,-0.009160486049950123,-0.044428493827581406
1785389266701723100,21.84272314453125,0.02890806458890438,-0.006821829825639725,-0.04210809990763664
1785389266721811000,21.86281103515625,0.03606521710753441,-0.015600020997226238,-0.04724879935383797
1785389266741898000,21.88289794921875,0.03156112879514694,-0.017680294811725616,-0.04075988754630089
1785389266761986300,21.902986328125,0.03260594606399536,-0.017310183495283127,-0.051395609974861145
1785389266782073300,21.9230732421875,0.03574620187282562,-0.03103731945157051,-0.05711713060736656
1785389266802160400,21.943160400390624,0.03030463680624962,-0.019372353330254555,-0.06679953634738922
1785389266822248200,21.963248291015624,0.03493502363562584,-0.0321102999150753,-0.07050860673189163
1785389266842335200,21.983335205078124,0.030627958476543427,-0.007799168583005667,-0.06749323755502701
1785389266862423300,22.00342333984375,0.035384852439165115,-0.006090587005019188,-0.055700141936540604
1785389266882510000,22.023510009765626,0.03263149783015251,-0.0013984254328534007,-0.04843812808394432
1785389266902598100,22.04359814453125,0.033083539456129074,-0.01312642078846693,-0.045598603785037994
1785389266922685200,22.063685302734374,0.0346069373190403,-0.016820138320326805,-0.046837836503982544
1785389266942773000,22.08377294921875,0.03492935746908188,-0.01661122962832451,-0.0548451691865921
1785389266962860000,22.103860107421873,0.03479884937405586,-0.009641356766223907,-0.05201428383588791
1785389266982947000,22.123947021484376,0.03536996990442276,-0.02548271045088768,-0.044567469507455826
1785389267003035100,22.14403515625,0.034407246857881546,-0.03478284925222397,-0.02807578444480896
1785389267023122200,22.1641220703125,0.03359578177332878,-0.015914352610707283,-0.03655529022216797
1785389267043210000,22.1842099609375,0.03477790951728821,-0.013447456061840057,-0.015377280302345753
1785389267063297000,22.204297119140627,0.03099578060209751,0.006512493826448917,-0.011430042795836926
1785389267083385300,22.22438525390625,0.03408678621053696,-0.004358073230832815,-0.02233986370265484
1785389267103472000,22.24447216796875,0.030434878543019295,0.007736381143331528,-0.015321373008191586
1785389267123559200,22.26455908203125,0.032548900693655014,-0.003916070330888033,-0.00865345448255539
1785389267143647200,22.284647216796873,0.031690649688243866,0.0016490747220814228,-0.015518712811172009
1785389267163734300,22.304734375,0.03314487263560295,-0.0120816919952631,-0.012538393028080463
1785389267183822300,22.324822265625,0.03897729888558388,-0.01645350269973278,-0.009436281397938728
1785389267203909400,22.344909423828124,0.03453219309449196,-0.003244528779760003,-0.014138477854430676
1785389267223997400,22.36499755859375,0.042735014110803604,-0.016896061599254608,-0.010274275206029415
1785389267244084500,22.38508447265625,0.03837888315320015,-0.009633354842662811,0.0023770718835294247
1785389267264171300,22.405171142578126,0.03804157301783562,-0.005028564017266035,-0.011843820102512836
1785389267284259300,22.42525927734375,0.04414612799882889,-0.015379216521978378,0.005303188227117062
1785389267304346400,22.445346435546874,0.039517756551504135,0.007144269533455372,-0.00743911461904645
1785389267324434200,22.46543408203125,0.04525915905833244,-0.0032497583888471127,-0.020901352167129517
1785389267344521200,22.485521240234377,0.03752363100647926,0.014798239804804325,-0.035412076860666275
1785389267364609500,22.505609619140625,0.046221472322940826,-0.006745237857103348,-0.05190042406320572
1785389267384696600,22.525696533203124,0.044753413647413254,0.029239054769277573,-0.06293435394763947
1785389267404783400,22.545783447265624,0.042619653046131134,0.06900202482938766,-0.044999316334724426
1785389267424871400,22.565871337890623,0.054562345147132874,0.015771707519888878,-0.04812899976968765
1785389267444958500,22.58595849609375,0.05181010812520981,-0.017823398113250732,-0.0475015826523304
1785389267465046500,22.606046630859375,0.0412115640938282,-0.01572706550359726,-0.04411428049206734
1785389267485133300,22.62613330078125,0.04034239053726196,-0.0023555723018944263,-0.03275606781244278
1785389267505221400,22.646221435546874,0.04055532440543175,-0.016022568568587303,-0.023650841787457466
1785389267525308400,22.666308349609373,0.038802314549684525,-0.034824881702661514,-0.022728607058525085
1785389267545395500,22.6863955078125,0.04153377190232277,-0.02888377197086811,-0.023597311228513718
1785389267565483300,22.706483154296876,0.04146870970726013,-0.014009512960910797,-0.022630682215094566
1785389267585570300,22.7265703125,0.044007472693920135,-0.016582341864705086,-0.013347562402486801
1785389267605658400,22.746658447265624,0.03467126935720444,0.0020870519801974297,-0.008834118023514748
1785389267625745400,22.766745361328127,0.04186190664768219,0.0037651436869055033,-0.03238731995224953
1785389267645833500,22.78683349609375,0.03710097447037697,0.0015065164770931005,-0.023721925914287567
1785389267665920500,22.80692041015625,0.03678291663527489,0.008213425055146217,-0.030022108927369118
1785389267686007600,22.827007568359374,0.0395999401807785,-0.002545085968449712,-0.029076991602778435
1785389267706095400,22.847095458984374,0.04313315823674202,-0.009826168417930603,-0.018001170828938484
1785389267726182400,22.867182373046877,0.04525275528430939,0.00682828901335597,-0.014736726880073547
1785389267746270500,22.8872705078125,0.052708808332681656,0.014006838202476501,-0.0026177463587373495
1785389267766357500,22.907357421875,0.05252137407660484,0.014471016824245453,0.044127631932497025
1785389267786445300,22.9274453125,0.03983824700117111,0.043843671679496765,-0.021828481927514076
1785389267806532400,22.947532470703123,0.03059264086186886,-0.0031311458442360163,-0.03790811449289322
1785389267826620400,22.967620361328127,0.05118895694613457,-0.018997885286808014,-0.0507831871509552
1785389267846707500,22.98770751953125,0.02152666449546814,0.03171355277299881,-0.01834285445511341
1785389267866794200,23.007794189453126,0.06688977032899857,-0.05960243567824364,-0.019020751118659973
1785389267886882300,23.02788232421875,0.02399221993982792,0.026702549308538437,-0.015912186354398727
1785389267906969300,23.04796923828125,0.05121658369898796,-0.04501599073410034,-0.030254146084189415
1785389267927057400,23.068057373046877,0.034363843500614166,0.0008011870086193085,-0.016464505344629288
1785389267947144400,23.08814453125,0.0446406826376915,-0.011473748832941055,-0.02833051048219204
1785389267967232500,23.108232421875,0.047715771943330765,-0.028519509360194206,-0.037979815155267715
1785389267987319600,23.128319580078124,0.033218469470739365,0.009461299516260624,-0.061859872192144394
1785389268007406600,23.148406494140627,0.046747539192438126,-0.038858018815517426,-0.0707729160785675
1785389268027494400,23.168494384765626,0.03249809890985489,-0.007493887096643448,-0.05193564295768738
1785389268047581400,23.18858154296875,0.04447655379772186,-0.02572008967399597,-0.03144277632236481
1785389268067669500,23.20866943359375,0.041267938911914825,-0.01587747223675251,-0.03337359428405762
1785389268087756300,23.22875634765625,0.04047306999564171,-0.022503478452563286,-0.04505437612533569
1785389268107844400,23.24884423828125,0.03764687106013298,-0.02431521564722061,-0.058139000087976456
1785389268127931400,23.268931396484376,0.03462713211774826,-0.01867220550775528,-0.07431972026824951
1785389268148018400,23.289018310546876,0.03724623844027519,-0.015147697180509567,-0.06752344965934753
1785389268168106200,23.309106201171875,0.03280298039317131,-0.010586604475975037,-0.07830730825662613
1785389268188194300,23.3291943359375,0.03389102593064308,-0.018527746200561523,-0.07977180182933807
1785389268208282000,23.3492822265625,0.029739586636424065,-0.02678145095705986,-0.08002699166536331
1785389268228369200,23.369369140625,0.029567541554570198,-0.0366063266992569,-0.08040052652359009
1785389268248457200,23.389457275390626,0.03102758899331093,-0.05779600143432617,-0.08269264549016953
1785389268268544300,23.409544189453126,0.03451240062713623,-0.08844378590583801,-0.08449743688106537
1785389268288631300,23.42963134765625,0.028917687013745308,-0.081756591796875,-0.08610227704048157
1785389268308719000,23.449718994140625,0.03365396335721016,-0.10266509652137756,-0.09032316505908966
1785389268328806100,23.46980615234375,0.031244920566678047,-0.10755600780248642,-0.08067961037158966
1785389268348894500,23.48989453125,0.03417601436376572,-0.12229254841804504,-0.08560585975646973
1785389268368981200,23.509981201171875,0.034781161695718765,-0.12710963189601898,-0.07799896597862244
1785389268389069300,23.5300693359375,0.037199053913354874,-0.1209106519818306,-0.07242108136415482
1785389268409156400,23.55015625,0.030866993591189384,-0.09755773097276688,-0.05790171027183533
1785389268429243400,23.570243408203126,0.028340302407741547,-0.08337089419364929,-0.03349398449063301
1785389268449331200,23.590331298828126,0.03117634914815426,-0.0788237676024437,-0.03681806102395058
1785389268469418200,23.610418212890625,0.03339140862226486,-0.07878623902797699,-0.036554448306560516
1785389268489506300,23.63050634765625,0.034797873347997665,-0.08075346797704697,-0.045377153903245926
1785389268509593300,23.65059326171875,0.04043281450867653,-0.0824476107954979,-0.033982470631599426
1785389268529681200,23.67068115234375,0.03655577450990677,-0.06331534683704376,-0.04288893938064575
1785389268549768200,23.690768310546876,0.039199769496917725,-0.050420697778463364,-0.036936983466148376
1785389268569856300,23.710856201171875,0.04240482300519943,-0.035756468772888184,-0.0428280383348465
1785389268589943300,23.730943359375,0.039438266307115555,-0.02849416807293892,-0.03320048376917839
1785389268610030000,23.751030029296874,0.03738338500261307,-0.02278212457895279,-0.027611881494522095
1785389268630118400,23.771118408203126,0.03847026824951172,-0.031722310930490494,-0.01547178067266941
1785389268650205400,23.791205322265625,0.03356334939599037,-0.03939332440495491,0.011391176842153072
1785389268670293200,23.811293212890625,0.03077237494289875,-0.04079218953847885,0.03549806773662567
1785389268690380300,23.83138037109375,0.028870489448308945,-0.0346076563000679,0.04236368089914322
1785389268710467300,23.85146728515625,0.026643553748726845,-0.02917640656232834,0.05649174749851227
1785389268730555400,23.871555419921876,0.021665729582309723,-0.012245338410139084,0.07038363814353943
1785389268750642200,23.89164208984375,0.025442952290177345,-0.01714109629392624,0.07406346499919891
1785389268770730200,23.911730224609375,0.024994686245918274,-0.02126818522810936,0.06871586292982101
1785389268790817300,23.9318173828125,0.027714664116501808,-0.019070930778980255,0.05887654796242714
1785389268810905300,23.9519052734375,0.03009672276675701,-0.029187671840190887,0.045594748109579086
1785389268830992100,23.9719921875,0.03512216731905937,-0.022913865745067596,0.03524105250835419
1785389268851080200,23.992080078125,0.04251464828848839,-0.026470789685845375,0.03136662766337395
